"rt","stimulus","key_press","trial_type","trial_index","time_elapsed","internal_node_id","responses","test_part","stim_type","correct_response","correct"
"6498","Press any key to begin.","32","html-keyboard-response","0","6507","0.0-0.0","","","","",""
"2740","","","survey-text","1","9249","0.0-1.0","{""Q0"":""Test_128714"",""Q1"":""Test_128714""}","","","",""
"1248","<p>For this phase you will see two similar images side by side on the screen I want you to tell us which of the items you have seen before in any of the previous sets of images. </p><p>If you have only seen the image on the left you will press the 'L' key on your keyboard.</p>If you have only seen the image on the right you will press the 'R' key on your keyboard.</p>If you have previously seen both of the images you will press the 'B' key on your keyboard.</p>If you have not seen either image you will press the 'N' key on your keyboard.</p><div style='width: 700px;'></div><p>Press any key to begin.</p>","32","html-keyboard-response","2","10498","0.0-2.0","","","","",""
"null","<div style=""font-size:60px;"">+</div>","null","html-keyboard-response","3","13006","0.0-3.0-0.0","","fixation","","",""
"2151","b_a montage/ba_038.jpg","66","image-keyboard-response","4","15158","0.0-3.0-1.0","","","Repeat","r","false"
"null","<div style=""font-size:60px;"">+</div>","null","html-keyboard-response","5","15659","0.0-3.0-0.1","","fixation","","",""
"1099","a_b new/ab_008.jpg","78","image-keyboard-response","6","16759","0.0-3.0-1.1","","","Neither","n","true"
"null","<div style=""font-size:60px;"">+</div>","null","html-keyboard-response","7","17260","0.0-3.0-0.2","","fixation","","",""
"1970","a_b montage/ab_109.jpg","66","image-keyboard-response","8","19230","0.0-3.0-1.2","","","Update","b","true"
"null","<div style=""font-size:60px;"">+</div>","null","html-keyboard-response","9","19732","0.0-3.0-0.3","","fixation","","",""
"2097","a_b montage/ab_088.jpg","76","image-keyboard-response","10","21831","0.0-3.0-1.3","","","Repeat","l","true"
"null","<div style=""font-size:60px;"">+</div>","null","html-keyboard-response","11","22333","0.0-3.0-0.4","","fixation","","",""
"2592","a_b montage/ab_067.jpg","76","image-keyboard-response","12","24926","0.0-3.0-1.4","","","Repeat","l","true"
"null","<div style=""font-size:60px;"">+</div>","null","html-keyboard-response","13","25428","0.0-3.0-0.5","","fixation","","",""
"1617","b_a montage/ba_174.jpg","78","image-keyboard-response","14","27047","0.0-3.0-1.5","","","Set_2_Only","r","false"
"null","<div style=""font-size:60px;"">+</div>","null","html-keyboard-response","15","27549","0.0-3.0-0.6","","fixation","","",""
"2168","a_b montage/ab_103.jpg","82","image-keyboard-response","16","29718","0.0-3.0-1.6","","","Update","b","false"
"null","<div style=""font-size:60px;"">+</div>","null","html-keyboard-response","17","30219","0.0-3.0-0.7","","fixation","","",""
"1763","a_b montage/ab_129.jpg","66","image-keyboard-response","18","31983","0.0-3.0-1.7","","","Update","b","true"
"null","<div style=""font-size:60px;"">+</div>","null","html-keyboard-response","19","32485","0.0-3.0-0.8","","fixation","","",""
"1409","a_b montage/ab_130.jpg","78","image-keyboard-response","20","33894","0.0-3.0-1.8","","","Update","b","false"
"null","<div style=""font-size:60px;"">+</div>","null","html-keyboard-response","21","34398","0.0-3.0-0.9","","fixation","","",""
"1112","a_b montage/ab_181.jpg","78","image-keyboard-response","22","35511","0.0-3.0-1.9","","","Set_2_Only","l","false"
"null","<div style=""font-size:60px;"">+</div>","null","html-keyboard-response","23","36012","0.0-3.0-0.10","","fixation","","",""
"1418","a_b montage/ab_179.jpg","78","image-keyboard-response","24","37430","0.0-3.0-1.10","","","Set_2_Only","l","false"
"null","<div style=""font-size:60px;"">+</div>","null","html-keyboard-response","25","37931","0.0-3.0-0.11","","fixation","","",""
"1291","a_b new/ab_016.jpg","78","image-keyboard-response","26","39223","0.0-3.0-1.11","","","Neither","n","true"
"null","<div style=""font-size:60px;"">+</div>","null","html-keyboard-response","27","39724","0.0-3.0-0.12","","fixation","","",""
"2377","a_b montage/ab_153.jpg","66","image-keyboard-response","28","42102","0.0-3.0-1.12","","","Update","b","true"
"null","<div style=""font-size:60px;"">+</div>","null","html-keyboard-response","29","42604","0.0-3.0-0.13","","fixation","","",""
"1505","b_a montage/ba_009.jpg","78","image-keyboard-response","30","44110","0.0-3.0-1.13","","","Set_1_Only","r","false"
"null","<div style=""font-size:60px;"">+</div>","null","html-keyboard-response","31","44616","0.0-3.0-0.14","","fixation","","",""
"1637","a_b montage/ab_141.jpg","66","image-keyboard-response","32","46254","0.0-3.0-1.14","","","Update","b","true"
"null","<div style=""font-size:60px;"">+</div>","null","html-keyboard-response","33","46755","0.0-3.0-0.15","","fixation","","",""
"1747","a_b montage/ab_079.jpg","76","image-keyboard-response","34","48503","0.0-3.0-1.15","","","Repeat","l","true"
"null","<div style=""font-size:60px;"">+</div>","null","html-keyboard-response","35","49007","0.0-3.0-0.16","","fixation","","",""
"1975","b_a montage/ba_176.jpg","78","image-keyboard-response","36","50982","0.0-3.0-1.16","","","Set_2_Only","r","false"
"null","<div style=""font-size:60px;"">+</div>","null","html-keyboard-response","37","51483","0.0-3.0-0.17","","fixation","","",""
"1362","a_b montage/ab_017.jpg","78","image-keyboard-response","38","52847","0.0-3.0-1.17","","","Set_1_Only","l","false"
"null","<div style=""font-size:60px;"">+</div>","null","html-keyboard-response","39","53347","0.0-3.0-0.18","","fixation","","",""
"2010","a_b montage/ab_069.jpg","76","image-keyboard-response","40","55358","0.0-3.0-1.18","","","Repeat","l","true"
"null","<div style=""font-size:60px;"">+</div>","null","html-keyboard-response","41","55859","0.0-3.0-0.19","","fixation","","",""
"1930","a_b montage/ab_100.jpg","76","image-keyboard-response","42","57790","0.0-3.0-1.19","","","Update","b","false"
"null","<div style=""font-size:60px;"">+</div>","null","html-keyboard-response","43","58293","0.0-3.0-0.20","","fixation","","",""
"976","a_b new/ab_001.jpg","78","image-keyboard-response","44","59270","0.0-3.0-1.20","","","Neither","n","true"
"null","<div style=""font-size:60px;"">+</div>","null","html-keyboard-response","45","59774","0.0-3.0-0.21","","fixation","","",""
"1200","b_a montage/ba_013.jpg","78","image-keyboard-response","46","60974","0.0-3.0-1.21","","","Set_1_Only","r","false"
"null","<div style=""font-size:60px;"">+</div>","null","html-keyboard-response","47","61476","0.0-3.0-0.22","","fixation","","",""
"1698","a_b montage/ab_066.jpg","76","image-keyboard-response","48","63175","0.0-3.0-1.22","","","Repeat","l","true"
"null","<div style=""font-size:60px;"">+</div>","null","html-keyboard-response","49","63678","0.0-3.0-0.23","","fixation","","",""
"2248","b_a montage/ba_041.jpg","82","image-keyboard-response","50","65926","0.0-3.0-1.23","","","Repeat","r","true"
"null","<div style=""font-size:60px;"">+</div>","null","html-keyboard-response","51","66429","0.0-3.0-0.24","","fixation","","",""
"2400","b_a montage/ba_043.jpg","78","image-keyboard-response","52","68830","0.0-3.0-1.24","","","Repeat","r","false"
"null","<div style=""font-size:60px;"">+</div>","null","html-keyboard-response","53","69331","0.0-3.0-0.25","","fixation","","",""
"2394","a_b montage/ab_080.jpg","66","image-keyboard-response","54","71726","0.0-3.0-1.25","","","Repeat","l","false"
"null","<div style=""font-size:60px;"">+</div>","null","html-keyboard-response","55","72227","0.0-3.0-0.26","","fixation","","",""
"2148","a_b montage/ab_131.jpg","82","image-keyboard-response","56","74375","0.0-3.0-1.26","","","Update","b","false"
"null","<div style=""font-size:60px;"">+</div>","null","html-keyboard-response","57","74879","0.0-3.0-0.27","","fixation","","",""
"1641","a_b montage/ab_147.jpg","66","image-keyboard-response","58","76521","0.0-3.0-1.27","","","Update","b","true"
"null","<div style=""font-size:60px;"">+</div>","null","html-keyboard-response","59","77022","0.0-3.0-0.28","","fixation","","",""
"1920","b_a montage/ba_047.jpg","82","image-keyboard-response","60","78942","0.0-3.0-1.28","","","Repeat","r","true"
"null","<div style=""font-size:60px;"">+</div>","null","html-keyboard-response","61","79446","0.0-3.0-0.29","","fixation","","",""
"2335","b_a montage/ba_168.jpg","76","image-keyboard-response","62","81782","0.0-3.0-1.29","","","Set_2_Only","r","false"
"null","<div style=""font-size:60px;"">+</div>","null","html-keyboard-response","63","82283","0.0-3.0-0.30","","fixation","","",""
"2276","a_b montage/ab_104.jpg","66","image-keyboard-response","64","84559","0.0-3.0-1.30","","","Update","b","true"
"null","<div style=""font-size:60px;"">+</div>","null","html-keyboard-response","65","85060","0.0-3.0-0.31","","fixation","","",""
"1729","a_b montage/ab_159.jpg","66","image-keyboard-response","66","86790","0.0-3.0-1.31","","","Update","b","true"
"null","<div style=""font-size:60px;"">+</div>","null","html-keyboard-response","67","87293","0.0-3.0-0.32","","fixation","","",""
"2081","a_b montage/ab_091.jpg","76","image-keyboard-response","68","89374","0.0-3.0-1.32","","","Repeat","l","true"
"null","<div style=""font-size:60px;"">+</div>","null","html-keyboard-response","69","89880","0.0-3.0-0.33","","fixation","","",""
"1720","a_b montage/ab_185.jpg","78","image-keyboard-response","70","91600","0.0-3.0-1.33","","","Set_2_Only","l","false"
"null","<div style=""font-size:60px;"">+</div>","null","html-keyboard-response","71","92102","0.0-3.0-0.34","","fixation","","",""
"1856","a_b montage/ab_107.jpg","66","image-keyboard-response","72","93958","0.0-3.0-1.34","","","Update","b","true"
"null","<div style=""font-size:60px;"">+</div>","null","html-keyboard-response","73","94461","0.0-3.0-0.35","","fixation","","",""
"2304","b_a montage/ba_163.jpg","66","image-keyboard-response","74","96766","0.0-3.0-1.35","","","Set_2_Only","r","false"
"null","<div style=""font-size:60px;"">+</div>","null","html-keyboard-response","75","97271","0.0-3.0-0.36","","fixation","","",""
"1206","a_b new/ab_011.jpg","78","image-keyboard-response","76","98478","0.0-3.0-1.36","","","Neither","n","true"
"null","<div style=""font-size:60px;"">+</div>","null","html-keyboard-response","77","98981","0.0-3.0-0.37","","fixation","","",""
"1769","a_b montage/ab_182.jpg","76","image-keyboard-response","78","100750","0.0-3.0-1.37","","","Set_2_Only","l","true"
"null","<div style=""font-size:60px;"">+</div>","null","html-keyboard-response","79","101251","0.0-3.0-0.38","","fixation","","",""
"2434","a_b montage/ab_188.jpg","66","image-keyboard-response","80","103686","0.0-3.0-1.38","","","Set_2_Only","l","false"
"null","<div style=""font-size:60px;"">+</div>","null","html-keyboard-response","81","104188","0.0-3.0-0.39","","fixation","","",""
"2233","a_b montage/ab_099.jpg","66","image-keyboard-response","82","106422","0.0-3.0-1.39","","","Update","b","true"
"null","<div style=""font-size:60px;"">+</div>","null","html-keyboard-response","83","106923","0.0-3.0-0.40","","fixation","","",""
"1883","a_b montage/ab_127.jpg","66","image-keyboard-response","84","108807","0.0-3.0-1.40","","","Update","b","true"
"null","<div style=""font-size:60px;"">+</div>","null","html-keyboard-response","85","109310","0.0-3.0-0.41","","fixation","","",""
"2488","b_a montage/ba_050.jpg","82","image-keyboard-response","86","111798","0.0-3.0-1.41","","","Repeat","r","true"
"null","<div style=""font-size:60px;"">+</div>","null","html-keyboard-response","87","112300","0.0-3.0-0.42","","fixation","","",""
"2216","a_b montage/ab_142.jpg","82","image-keyboard-response","88","114518","0.0-3.0-1.42","","","Update","b","false"
"null","<div style=""font-size:60px;"">+</div>","null","html-keyboard-response","89","115019","0.0-3.0-0.43","","fixation","","",""
"2843","b_a montage/ba_056.jpg","82","image-keyboard-response","90","117862","0.0-3.0-1.43","","","Repeat","r","true"
"null","<div style=""font-size:60px;"">+</div>","null","html-keyboard-response","91","118367","0.0-3.0-0.44","","fixation","","",""
"2270","a_b montage/ab_150.jpg","82","image-keyboard-response","92","120639","0.0-3.0-1.44","","","Update","b","false"
"null","<div style=""font-size:60px;"">+</div>","null","html-keyboard-response","93","121142","0.0-3.0-0.45","","fixation","","",""
"1679","a_b montage/ab_020.jpg","78","image-keyboard-response","94","122822","0.0-3.0-1.45","","","Set_1_Only","l","false"
"null","<div style=""font-size:60px;"">+</div>","null","html-keyboard-response","95","123322","0.0-3.0-0.46","","fixation","","",""
"1931","a_b montage/ab_139.jpg","66","image-keyboard-response","96","125254","0.0-3.0-1.46","","","Update","b","true"
"null","<div style=""font-size:60px;"">+</div>","null","html-keyboard-response","97","125755","0.0-3.0-0.47","","fixation","","",""
"1883","a_b montage/ab_149.jpg","76","image-keyboard-response","98","127638","0.0-3.0-1.47","","","Update","b","false"
"null","<div style=""font-size:60px;"">+</div>","null","html-keyboard-response","99","128142","0.0-3.0-0.48","","fixation","","",""
"1590","a_b new/ab_003.jpg","78","image-keyboard-response","100","129734","0.0-3.0-1.48","","","Neither","n","true"
"null","<div style=""font-size:60px;"">+</div>","null","html-keyboard-response","101","130235","0.0-3.0-0.49","","fixation","","",""
"1468","a_b montage/ab_098.jpg","66","image-keyboard-response","102","131703","0.0-3.0-1.49","","","Update","b","true"
"null","<div style=""font-size:60px;"">+</div>","null","html-keyboard-response","103","132205","0.0-3.0-0.50","","fixation","","",""
"1793","a_b montage/ab_084.jpg","66","image-keyboard-response","104","133998","0.0-3.0-1.50","","","Repeat","l","false"
"null","<div style=""font-size:60px;"">+</div>","null","html-keyboard-response","105","134499","0.0-3.0-0.51","","fixation","","",""
"1427","a_b montage/ab_177.jpg","78","image-keyboard-response","106","135926","0.0-3.0-1.51","","","Set_2_Only","l","false"
"null","<div style=""font-size:60px;"">+</div>","null","html-keyboard-response","107","136426","0.0-3.0-0.52","","fixation","","",""
"1683","a_b montage/ab_111.jpg","66","image-keyboard-response","108","138110","0.0-3.0-1.52","","","Update","b","true"
"null","<div style=""font-size:60px;"">+</div>","null","html-keyboard-response","109","138611","0.0-3.0-0.53","","fixation","","",""
"1874","a_b montage/ab_090.jpg","76","image-keyboard-response","110","140486","0.0-3.0-1.53","","","Repeat","l","true"
"null","<div style=""font-size:60px;"">+</div>","null","html-keyboard-response","111","140987","0.0-3.0-0.54","","fixation","","",""
"1483","b_a montage/ba_012.jpg","78","image-keyboard-response","112","142470","0.0-3.0-1.54","","","Set_1_Only","r","false"
"null","<div style=""font-size:60px;"">+</div>","null","html-keyboard-response","113","142971","0.0-3.0-0.55","","fixation","","",""
"1746","b_a montage/ba_039.jpg","66","image-keyboard-response","114","144718","0.0-3.0-1.55","","","Repeat","r","false"
"null","<div style=""font-size:60px;"">+</div>","null","html-keyboard-response","115","145218","0.0-3.0-0.56","","fixation","","",""
"1851","a_b montage/ab_125.jpg","66","image-keyboard-response","116","147070","0.0-3.0-1.56","","","Update","b","true"
"null","<div style=""font-size:60px;"">+</div>","null","html-keyboard-response","117","147575","0.0-3.0-0.57","","fixation","","",""
"1951","b_a montage/ba_172.jpg","82","image-keyboard-response","118","149526","0.0-3.0-1.57","","","Set_2_Only","r","true"
"null","<div style=""font-size:60px;"">+</div>","null","html-keyboard-response","119","150027","0.0-3.0-0.58","","fixation","","",""
"1890","b_a montage/ba_046.jpg","76","image-keyboard-response","120","151918","0.0-3.0-1.58","","","Repeat","r","false"
"null","<div style=""font-size:60px;"">+</div>","null","html-keyboard-response","121","152419","0.0-3.0-0.59","","fixation","","",""
"1907","b_a montage/ba_004.jpg","78","image-keyboard-response","122","154326","0.0-3.0-1.59","","","Set_1_Only","r","false"
"null","<div style=""font-size:60px;"">+</div>","null","html-keyboard-response","123","154827","0.0-3.0-0.60","","fixation","","",""
"1769","b_a montage/ba_062.jpg","78","image-keyboard-response","124","156597","0.0-3.0-1.60","","","Repeat","r","false"
"null","<div style=""font-size:60px;"">+</div>","null","html-keyboard-response","125","157101","0.0-3.0-0.61","","fixation","","",""
"2127","b_a montage/ba_166.jpg","66","image-keyboard-response","126","159230","0.0-3.0-1.61","","","Set_2_Only","r","false"
"null","<div style=""font-size:60px;"">+</div>","null","html-keyboard-response","127","159731","0.0-3.0-0.62","","fixation","","",""
"1219","a_b montage/ab_148.jpg","66","image-keyboard-response","128","160950","0.0-3.0-1.62","","","Update","b","true"
"null","<div style=""font-size:60px;"">+</div>","null","html-keyboard-response","129","161454","0.0-3.0-0.63","","fixation","","",""
"1016","a_b montage/ab_108.jpg","66","image-keyboard-response","130","162470","0.0-3.0-1.63","","","Update","b","true"
"null","<div style=""font-size:60px;"">+</div>","null","html-keyboard-response","131","162971","0.0-3.0-0.64","","fixation","","",""
"1819","a_b new/ab_010.jpg","78","image-keyboard-response","132","164791","0.0-3.0-1.64","","","Neither","n","true"
"null","<div style=""font-size:60px;"">+</div>","null","html-keyboard-response","133","165296","0.0-3.0-0.65","","fixation","","",""
"2061","b_a montage/ba_011.jpg","66","image-keyboard-response","134","167357","0.0-3.0-1.65","","","Set_1_Only","r","false"
"null","<div style=""font-size:60px;"">+</div>","null","html-keyboard-response","135","167858","0.0-3.0-0.66","","fixation","","",""
"1418","a_b montage/ab_180.jpg","78","image-keyboard-response","136","169278","0.0-3.0-1.66","","","Set_2_Only","l","false"
"null","<div style=""font-size:60px;"">+</div>","null","html-keyboard-response","137","169782","0.0-3.0-0.67","","fixation","","",""
"2568","b_a montage/ba_015.jpg","78","image-keyboard-response","138","172350","0.0-3.0-1.67","","","Set_1_Only","r","false"
"null","<div style=""font-size:60px;"">+</div>","null","html-keyboard-response","139","172853","0.0-3.0-0.68","","fixation","","",""
"1903","b_a montage/ba_058.jpg","82","image-keyboard-response","140","174757","0.0-3.0-1.68","","","Repeat","r","true"
"null","<div style=""font-size:60px;"">+</div>","null","html-keyboard-response","141","175258","0.0-3.0-0.69","","fixation","","",""
"3491","a_b montage/ab_154.jpg","82","image-keyboard-response","142","178750","0.0-3.0-1.69","","","Update","b","false"
"null","<div style=""font-size:60px;"">+</div>","null","html-keyboard-response","143","179251","0.0-3.0-0.70","","fixation","","",""
"3399","a_b montage/ab_112.jpg","82","image-keyboard-response","144","182651","0.0-3.0-1.70","","","Update","b","false"
"null","<div style=""font-size:60px;"">+</div>","null","html-keyboard-response","145","183155","0.0-3.0-0.71","","fixation","","",""
"2431","a_b montage/ab_183.jpg","66","image-keyboard-response","146","185588","0.0-3.0-1.71","","","Set_2_Only","l","false"
"null","<div style=""font-size:60px;"">+</div>","null","html-keyboard-response","147","186090","0.0-3.0-0.72","","fixation","","",""
"1767","a_b montage/ab_192.jpg","66","image-keyboard-response","148","187860","0.0-3.0-1.72","","","Set_2_Only","l","false"
"null","<div style=""font-size:60px;"">+</div>","null","html-keyboard-response","149","188365","0.0-3.0-0.73","","fixation","","",""
"1134","a_b montage/ab_113.jpg","66","image-keyboard-response","150","189500","0.0-3.0-1.73","","","Update","b","true"
"null","<div style=""font-size:60px;"">+</div>","null","html-keyboard-response","151","190003","0.0-3.0-0.74","","fixation","","",""
"2049","b_a montage/ba_037.jpg","78","image-keyboard-response","152","192052","0.0-3.0-1.74","","","Repeat","r","false"
"null","<div style=""font-size:60px;"">+</div>","null","html-keyboard-response","153","192557","0.0-3.0-0.75","","fixation","","",""
"1446","a_b montage/ab_019.jpg","78","image-keyboard-response","154","194004","0.0-3.0-1.75","","","Set_1_Only","l","false"
"null","<div style=""font-size:60px;"">+</div>","null","html-keyboard-response","155","194505","0.0-3.0-0.76","","fixation","","",""
"1090","a_b montage/ab_018.jpg","78","image-keyboard-response","156","195596","0.0-3.0-1.76","","","Set_1_Only","l","false"
"null","<div style=""font-size:60px;"">+</div>","null","html-keyboard-response","157","196101","0.0-3.0-0.77","","fixation","","",""
"2775","a_b montage/ab_085.jpg","76","image-keyboard-response","158","198876","0.0-3.0-1.77","","","Repeat","l","true"
"null","<div style=""font-size:60px;"">+</div>","null","html-keyboard-response","159","199381","0.0-3.0-0.78","","fixation","","",""
"1597","b_a montage/ba_034.jpg","82","image-keyboard-response","160","200980","0.0-3.0-1.78","","","Repeat","r","true"
"null","<div style=""font-size:60px;"">+</div>","null","html-keyboard-response","161","201481","0.0-3.0-0.79","","fixation","","",""
"2690","a_b montage/ab_117.jpg","66","image-keyboard-response","162","204171","0.0-3.0-1.79","","","Update","b","true"
"null","<div style=""font-size:60px;"">+</div>","null","html-keyboard-response","163","204674","0.0-3.0-0.80","","fixation","","",""
"2018","a_b montage/ab_082.jpg","76","image-keyboard-response","164","206692","0.0-3.0-1.80","","","Repeat","l","true"
"null","<div style=""font-size:60px;"">+</div>","null","html-keyboard-response","165","207195","0.0-3.0-0.81","","fixation","","",""
"3066","a_b montage/ab_092.jpg","82","image-keyboard-response","166","210261","0.0-3.0-1.81","","","Repeat","l","false"
"null","<div style=""font-size:60px;"">+</div>","null","html-keyboard-response","167","210767","0.0-3.0-0.82","","fixation","","",""
"2244","b_a montage/ba_060.jpg","82","image-keyboard-response","168","213012","0.0-3.0-1.82","","","Repeat","r","true"
"null","<div style=""font-size:60px;"">+</div>","null","html-keyboard-response","169","213517","0.0-3.0-0.83","","fixation","","",""
"2310","b_a montage/ba_061.jpg","82","image-keyboard-response","170","215827","0.0-3.0-1.83","","","Repeat","r","true"
"null","<div style=""font-size:60px;"">+</div>","null","html-keyboard-response","171","216332","0.0-3.0-0.84","","fixation","","",""
"1606","a_b montage/ab_158.jpg","76","image-keyboard-response","172","217938","0.0-3.0-1.84","","","Update","b","false"
"null","<div style=""font-size:60px;"">+</div>","null","html-keyboard-response","173","218440","0.0-3.0-0.85","","fixation","","",""
"2257","a_b montage/ab_075.jpg","76","image-keyboard-response","174","220699","0.0-3.0-1.85","","","Repeat","l","true"
"null","<div style=""font-size:60px;"">+</div>","null","html-keyboard-response","175","221204","0.0-3.0-0.86","","fixation","","",""
"1990","a_b montage/ab_086.jpg","76","image-keyboard-response","176","223195","0.0-3.0-1.86","","","Repeat","l","true"
"null","<div style=""font-size:60px;"">+</div>","null","html-keyboard-response","177","223698","0.0-3.0-0.87","","fixation","","",""
"2344","a_b montage/ab_190.jpg","76","image-keyboard-response","178","226043","0.0-3.0-1.87","","","Set_2_Only","l","true"
"null","<div style=""font-size:60px;"">+</div>","null","html-keyboard-response","179","226548","0.0-3.0-0.88","","fixation","","",""
"2270","b_a montage/ba_055.jpg","82","image-keyboard-response","180","228819","0.0-3.0-1.88","","","Repeat","r","true"
"null","<div style=""font-size:60px;"">+</div>","null","html-keyboard-response","181","229324","0.0-3.0-0.89","","fixation","","",""
"1541","a_b montage/ab_135.jpg","66","image-keyboard-response","182","230866","0.0-3.0-1.89","","","Update","b","true"
"null","<div style=""font-size:60px;"">+</div>","null","html-keyboard-response","183","231372","0.0-3.0-0.90","","fixation","","",""
"1582","a_b montage/ab_137.jpg","66","image-keyboard-response","184","232955","0.0-3.0-1.90","","","Update","b","true"
"null","<div style=""font-size:60px;"">+</div>","null","html-keyboard-response","185","233455","0.0-3.0-0.91","","fixation","","",""
"2811","b_a montage/ba_006.jpg","66","image-keyboard-response","186","236267","0.0-3.0-1.91","","","Set_1_Only","r","false"
"null","<div style=""font-size:60px;"">+</div>","null","html-keyboard-response","187","236773","0.0-3.0-0.92","","fixation","","",""
"1829","b_a montage/ba_170.jpg","76","image-keyboard-response","188","238603","0.0-3.0-1.92","","","Set_2_Only","r","false"
"null","<div style=""font-size:60px;"">+</div>","null","html-keyboard-response","189","239108","0.0-3.0-0.93","","fixation","","",""
"2670","b_a montage/ba_051.jpg","66","image-keyboard-response","190","241779","0.0-3.0-1.93","","","Repeat","r","false"
"null","<div style=""font-size:60px;"">+</div>","null","html-keyboard-response","191","242284","0.0-3.0-0.94","","fixation","","",""
"1813","a_b montage/ab_128.jpg","66","image-keyboard-response","192","244098","0.0-3.0-1.94","","","Update","b","true"
"null","<div style=""font-size:60px;"">+</div>","null","html-keyboard-response","193","244604","0.0-3.0-0.95","","fixation","","",""
"1958","a_b montage/ab_145.jpg","82","image-keyboard-response","194","246562","0.0-3.0-1.95","","","Update","b","false"
"null","<div style=""font-size:60px;"">+</div>","null","html-keyboard-response","195","247067","0.0-3.0-0.96","","fixation","","",""
"3155","a_b montage/ab_031.jpg","76","image-keyboard-response","196","250223","0.0-3.0-1.96","","","Set_1_Only","l","true"
"null","<div style=""font-size:60px;"">+</div>","null","html-keyboard-response","197","250728","0.0-3.0-0.97","","fixation","","",""
"1598","a_b montage/ab_071.jpg","76","image-keyboard-response","198","252327","0.0-3.0-1.97","","","Repeat","l","true"
"null","<div style=""font-size:60px;"">+</div>","null","html-keyboard-response","199","252830","0.0-3.0-0.98","","fixation","","",""
"1657","b_a montage/ba_120.jpg","66","image-keyboard-response","200","254487","0.0-3.0-1.98","","","Update","b","true"
"null","<div style=""font-size:60px;"">+</div>","null","html-keyboard-response","201","254988","0.0-3.0-0.99","","fixation","","",""
"2563","b_a montage/ba_143.jpg","82","image-keyboard-response","202","257551","0.0-3.0-1.99","","","Update","b","false"
"null","<div style=""font-size:60px;"">+</div>","null","html-keyboard-response","203","258054","0.0-3.0-0.100","","fixation","","",""
"1552","b_a montage/ba_146.jpg","66","image-keyboard-response","204","259607","0.0-3.0-1.100","","","Update","b","true"
"null","<div style=""font-size:60px;"">+</div>","null","html-keyboard-response","205","260108","0.0-3.0-0.101","","fixation","","",""
"1386","a_b new/ab_015.jpg","78","image-keyboard-response","206","261495","0.0-3.0-1.101","","","Neither","n","true"
"null","<div style=""font-size:60px;"">+</div>","null","html-keyboard-response","207","261998","0.0-3.0-0.102","","fixation","","",""
"2215","b_a montage/ba_097.jpg","78","image-keyboard-response","208","264214","0.0-3.0-1.102","","","Update","b","false"
"null","<div style=""font-size:60px;"">+</div>","null","html-keyboard-response","209","264715","0.0-3.0-0.103","","fixation","","",""
"1651","b_a montage/ba_036.jpg","82","image-keyboard-response","210","266367","0.0-3.0-1.103","","","Repeat","r","true"
"null","<div style=""font-size:60px;"">+</div>","null","html-keyboard-response","211","266870","0.0-3.0-0.104","","fixation","","",""
"2152","b_a montage/ba_136.jpg","82","image-keyboard-response","212","269024","0.0-3.0-1.104","","","Update","b","false"
"null","<div style=""font-size:60px;"">+</div>","null","html-keyboard-response","213","269528","0.0-3.0-0.105","","fixation","","",""
"1958","a_b montage/ab_073.jpg","76","image-keyboard-response","214","271487","0.0-3.0-1.105","","","Repeat","l","true"
"null","<div style=""font-size:60px;"">+</div>","null","html-keyboard-response","215","271992","0.0-3.0-0.106","","fixation","","",""
"2390","b_a montage/ba_133.jpg","82","image-keyboard-response","216","274383","0.0-3.0-1.106","","","Update","b","false"
"null","<div style=""font-size:60px;"">+</div>","null","html-keyboard-response","217","274884","0.0-3.0-0.107","","fixation","","",""
"1778","b_a montage/ba_045.jpg","82","image-keyboard-response","218","276663","0.0-3.0-1.107","","","Repeat","r","true"
"null","<div style=""font-size:60px;"">+</div>","null","html-keyboard-response","219","277167","0.0-3.0-0.108","","fixation","","",""
"2400","a_b montage/ab_081.jpg","76","image-keyboard-response","220","279567","0.0-3.0-1.108","","","Repeat","l","true"
"null","<div style=""font-size:60px;"">+</div>","null","html-keyboard-response","221","280069","0.0-3.0-0.109","","fixation","","",""
"2418","a_b montage/ab_089.jpg","82","image-keyboard-response","222","282487","0.0-3.0-1.109","","","Repeat","l","false"
"null","<div style=""font-size:60px;"">+</div>","null","html-keyboard-response","223","282992","0.0-3.0-0.110","","fixation","","",""
"1918","a_b new/ab_005.jpg","78","image-keyboard-response","224","284911","0.0-3.0-1.110","","","Neither","n","true"
"null","<div style=""font-size:60px;"">+</div>","null","html-keyboard-response","225","285413","0.0-3.0-0.111","","fixation","","",""
"2161","b_a montage/ba_053.jpg","76","image-keyboard-response","226","287574","0.0-3.0-1.111","","","Repeat","r","false"
"null","<div style=""font-size:60px;"">+</div>","null","html-keyboard-response","227","288077","0.0-3.0-0.112","","fixation","","",""
"2498","b_a montage/ba_119.jpg","76","image-keyboard-response","228","290575","0.0-3.0-1.112","","","Update","b","false"
"null","<div style=""font-size:60px;"">+</div>","null","html-keyboard-response","229","291076","0.0-3.0-0.113","","fixation","","",""
"2682","b_a montage/ba_171.jpg","76","image-keyboard-response","230","293759","0.0-3.0-1.113","","","Set_2_Only","r","false"
"null","<div style=""font-size:60px;"">+</div>","null","html-keyboard-response","231","294262","0.0-3.0-0.114","","fixation","","",""
"2464","b_a montage/ba_110.jpg","76","image-keyboard-response","232","296727","0.0-3.0-1.114","","","Update","b","false"
"null","<div style=""font-size:60px;"">+</div>","null","html-keyboard-response","233","297228","0.0-3.0-0.115","","fixation","","",""
"3332","b_a montage/ba_116.jpg","76","image-keyboard-response","234","300561","0.0-3.0-1.115","","","Update","b","false"
"null","<div style=""font-size:60px;"">+</div>","null","html-keyboard-response","235","301065","0.0-3.0-0.116","","fixation","","",""
"2048","a_b montage/ab_024.jpg","78","image-keyboard-response","236","303114","0.0-3.0-1.116","","","Set_1_Only","l","false"
"null","<div style=""font-size:60px;"">+</div>","null","html-keyboard-response","237","303617","0.0-3.0-0.117","","fixation","","",""
"2654","a_b montage/ab_026.jpg","82","image-keyboard-response","238","306273","0.0-3.0-1.117","","","Set_1_Only","l","false"
"null","<div style=""font-size:60px;"">+</div>","null","html-keyboard-response","239","306776","0.0-3.0-0.118","","fixation","","",""
"1449","b_a montage/ba_052.jpg","82","image-keyboard-response","240","308226","0.0-3.0-1.118","","","Repeat","r","true"
"null","<div style=""font-size:60px;"">+</div>","null","html-keyboard-response","241","308731","0.0-3.0-0.119","","fixation","","",""
"1510","a_b montage/ab_094.jpg","82","image-keyboard-response","242","310241","0.0-3.0-1.119","","","Repeat","l","false"
"null","<div style=""font-size:60px;"">+</div>","null","html-keyboard-response","243","310746","0.0-3.0-0.120","","fixation","","",""
"1806","b_a montage/ba_101.jpg","82","image-keyboard-response","244","312553","0.0-3.0-1.120","","","Update","b","false"
"null","<div style=""font-size:60px;"">+</div>","null","html-keyboard-response","245","313054","0.0-3.0-0.121","","fixation","","",""
"2170","b_a montage/ba_152.jpg","82","image-keyboard-response","246","315225","0.0-3.0-1.121","","","Update","b","false"
"null","<div style=""font-size:60px;"">+</div>","null","html-keyboard-response","247","315727","0.0-3.0-0.122","","fixation","","",""
"2201","a_b montage/ab_093.jpg","76","image-keyboard-response","248","317929","0.0-3.0-1.122","","","Repeat","l","true"
"null","<div style=""font-size:60px;"">+</div>","null","html-keyboard-response","249","318431","0.0-3.0-0.123","","fixation","","",""
"1330","a_b new/ab_007.jpg","78","image-keyboard-response","250","319761","0.0-3.0-1.123","","","Neither","n","true"
"null","<div style=""font-size:60px;"">+</div>","null","html-keyboard-response","251","320262","0.0-3.0-0.124","","fixation","","",""
"2242","b_a montage/ba_102.jpg","76","image-keyboard-response","252","322506","0.0-3.0-1.124","","","Update","b","false"
"null","<div style=""font-size:60px;"">+</div>","null","html-keyboard-response","253","323006","0.0-3.0-0.125","","fixation","","",""
"1666","a_b montage/ab_021.jpg","78","image-keyboard-response","254","324674","0.0-3.0-1.125","","","Set_1_Only","l","false"
"null","<div style=""font-size:60px;"">+</div>","null","html-keyboard-response","255","325174","0.0-3.0-0.126","","fixation","","",""
"1978","a_b montage/ab_065.jpg","76","image-keyboard-response","256","327154","0.0-3.0-1.126","","","Repeat","l","true"
"null","<div style=""font-size:60px;"">+</div>","null","html-keyboard-response","257","327655","0.0-3.0-0.127","","fixation","","",""
"2057","a_b new/ab_002.jpg","78","image-keyboard-response","258","329713","0.0-3.0-1.127","","","Neither","n","true"
"null","<div style=""font-size:60px;"">+</div>","null","html-keyboard-response","259","330217","0.0-3.0-0.128","","fixation","","",""
"1463","b_a montage/ba_057.jpg","82","image-keyboard-response","260","331681","0.0-3.0-1.128","","","Repeat","r","true"
"null","<div style=""font-size:60px;"">+</div>","null","html-keyboard-response","261","332182","0.0-3.0-0.129","","fixation","","",""
"1330","b_a montage/ba_167.jpg","82","image-keyboard-response","262","333513","0.0-3.0-1.129","","","Set_2_Only","r","true"
"null","<div style=""font-size:60px;"">+</div>","null","html-keyboard-response","263","334017","0.0-3.0-0.130","","fixation","","",""
"2144","b_a montage/ba_160.jpg","66","image-keyboard-response","264","336161","0.0-3.0-1.130","","","Update","b","true"
"null","<div style=""font-size:60px;"">+</div>","null","html-keyboard-response","265","336662","0.0-3.0-0.131","","fixation","","",""
"1164","b_a montage/ba_005.jpg","78","image-keyboard-response","266","337827","0.0-3.0-1.131","","","Set_1_Only","r","false"
"null","<div style=""font-size:60px;"">+</div>","null","html-keyboard-response","267","338330","0.0-3.0-0.132","","fixation","","",""
"1550","b_a montage/ba_140.jpg","66","image-keyboard-response","268","339881","0.0-3.0-1.132","","","Update","b","true"
"null","<div style=""font-size:60px;"">+</div>","null","html-keyboard-response","269","340384","0.0-3.0-0.133","","fixation","","",""
"1169","b_a new/ba_006.jpg","78","image-keyboard-response","270","341553","0.0-3.0-1.133","","","Neither","n","true"
"null","<div style=""font-size:60px;"">+</div>","null","html-keyboard-response","271","342055","0.0-3.0-0.134","","fixation","","",""
"2018","b_a montage/ba_123.jpg","66","image-keyboard-response","272","344073","0.0-3.0-1.134","","","Update","b","true"
"null","<div style=""font-size:60px;"">+</div>","null","html-keyboard-response","273","344574","0.0-3.0-0.135","","fixation","","",""
"2746","b_a montage/ba_033.jpg","82","image-keyboard-response","274","347321","0.0-3.0-1.135","","","Repeat","r","true"
"null","<div style=""font-size:60px;"">+</div>","null","html-keyboard-response","275","347822","0.0-3.0-0.136","","fixation","","",""
"1530","a_b montage/ab_077.jpg","76","image-keyboard-response","276","349354","0.0-3.0-1.136","","","Repeat","l","true"
"null","<div style=""font-size:60px;"">+</div>","null","html-keyboard-response","277","349855","0.0-3.0-0.137","","fixation","","",""
"890","a_b montage/ab_032.jpg","78","image-keyboard-response","278","350745","0.0-3.0-1.137","","","Set_1_Only","l","false"
"null","<div style=""font-size:60px;"">+</div>","null","html-keyboard-response","279","351250","0.0-3.0-0.138","","fixation","","",""
"2046","b_a montage/ba_156.jpg","66","image-keyboard-response","280","353296","0.0-3.0-1.138","","","Update","b","true"
"null","<div style=""font-size:60px;"">+</div>","null","html-keyboard-response","281","353799","0.0-3.0-0.139","","fixation","","",""
"1250","a_b montage/ab_022.jpg","78","image-keyboard-response","282","355049","0.0-3.0-1.139","","","Set_1_Only","l","false"
"null","<div style=""font-size:60px;"">+</div>","null","html-keyboard-response","283","355554","0.0-3.0-0.140","","fixation","","",""
"1126","b_a montage/ba_114.jpg","66","image-keyboard-response","284","356681","0.0-3.0-1.140","","","Update","b","true"
"null","<div style=""font-size:60px;"">+</div>","null","html-keyboard-response","285","357182","0.0-3.0-0.141","","fixation","","",""
"1699","b_a new/ba_013.jpg","78","image-keyboard-response","286","358881","0.0-3.0-1.141","","","Neither","n","true"
"null","<div style=""font-size:60px;"">+</div>","null","html-keyboard-response","287","359382","0.0-3.0-0.142","","fixation","","",""
"1651","a_b montage/ab_023.jpg","82","image-keyboard-response","288","361034","0.0-3.0-1.142","","","Set_1_Only","l","false"
"null","<div style=""font-size:60px;"">+</div>","null","html-keyboard-response","289","361535","0.0-3.0-0.143","","fixation","","",""
"1930","a_b montage/ab_087.jpg","76","image-keyboard-response","290","363465","0.0-3.0-1.143","","","Repeat","l","true"
"null","<div style=""font-size:60px;"">+</div>","null","html-keyboard-response","291","363966","0.0-3.0-0.144","","fixation","","",""
"1602","b_a montage/ba_155.jpg","66","image-keyboard-response","292","365569","0.0-3.0-1.144","","","Update","b","true"
"null","<div style=""font-size:60px;"">+</div>","null","html-keyboard-response","293","366071","0.0-3.0-0.145","","fixation","","",""
"1433","b_a montage/ba_002.jpg","66","image-keyboard-response","294","367505","0.0-3.0-1.145","","","Set_1_Only","r","false"
"null","<div style=""font-size:60px;"">+</div>","null","html-keyboard-response","295","368010","0.0-3.0-0.146","","fixation","","",""
"1583","b_a montage/ba_161.jpg","78","image-keyboard-response","296","369594","0.0-3.0-1.146","","","Set_2_Only","r","false"
"null","<div style=""font-size:60px;"">+</div>","null","html-keyboard-response","297","370097","0.0-3.0-0.147","","fixation","","",""
"1321","a_b montage/ab_029.jpg","78","image-keyboard-response","298","371418","0.0-3.0-1.147","","","Set_1_Only","l","false"
"null","<div style=""font-size:60px;"">+</div>","null","html-keyboard-response","299","371923","0.0-3.0-0.148","","fixation","","",""
"1885","a_b montage/ab_030.jpg","66","image-keyboard-response","300","373809","0.0-3.0-1.148","","","Set_1_Only","l","false"
"null","<div style=""font-size:60px;"">+</div>","null","html-keyboard-response","301","374313","0.0-3.0-0.149","","fixation","","",""
"1095","b_a new/ba_004.jpg","78","image-keyboard-response","302","375409","0.0-3.0-1.149","","","Neither","n","true"
"null","<div style=""font-size:60px;"">+</div>","null","html-keyboard-response","303","375911","0.0-3.0-0.150","","fixation","","",""
"2010","b_a montage/ba_049.jpg","66","image-keyboard-response","304","377921","0.0-3.0-1.150","","","Repeat","r","false"
"null","<div style=""font-size:60px;"">+</div>","null","html-keyboard-response","305","378423","0.0-3.0-0.151","","fixation","","",""
"1113","a_b montage/ab_027.jpg","78","image-keyboard-response","306","379537","0.0-3.0-1.151","","","Set_1_Only","l","false"
"null","<div style=""font-size:60px;"">+</div>","null","html-keyboard-response","307","380042","0.0-3.0-0.152","","fixation","","",""
"927","b_a montage/ba_008.jpg","78","image-keyboard-response","308","380969","0.0-3.0-1.152","","","Set_1_Only","r","false"
"null","<div style=""font-size:60px;"">+</div>","null","html-keyboard-response","309","381474","0.0-3.0-0.153","","fixation","","",""
"2390","b_a montage/ba_048.jpg","76","image-keyboard-response","310","383866","0.0-3.0-1.153","","","Repeat","r","false"
"null","<div style=""font-size:60px;"">+</div>","null","html-keyboard-response","311","384371","0.0-3.0-0.154","","fixation","","",""
"1094","a_b montage/ab_191.jpg","78","image-keyboard-response","312","385465","0.0-3.0-1.154","","","Set_2_Only","l","false"
"null","<div style=""font-size:60px;"">+</div>","null","html-keyboard-response","313","385967","0.0-3.0-0.155","","fixation","","",""
"1377","a_b montage/ab_186.jpg","76","image-keyboard-response","314","387346","0.0-3.0-1.155","","","Set_2_Only","l","true"
"null","<div style=""font-size:60px;"">+</div>","null","html-keyboard-response","315","387849","0.0-3.0-0.156","","fixation","","",""
"1479","b_a montage/ba_157.jpg","66","image-keyboard-response","316","389329","0.0-3.0-1.156","","","Update","b","true"
"null","<div style=""font-size:60px;"">+</div>","null","html-keyboard-response","317","389830","0.0-3.0-0.157","","fixation","","",""
"1923","a_b montage/ab_072.jpg","76","image-keyboard-response","318","391753","0.0-3.0-1.157","","","Repeat","l","true"
"null","<div style=""font-size:60px;"">+</div>","null","html-keyboard-response","319","392255","0.0-3.0-0.158","","fixation","","",""
"1169","b_a montage/ba_173.jpg","78","image-keyboard-response","320","393425","0.0-3.0-1.158","","","Set_2_Only","r","false"
"null","<div style=""font-size:60px;"">+</div>","null","html-keyboard-response","321","393926","0.0-3.0-0.159","","fixation","","",""
"1595","a_b montage/ab_187.jpg","78","image-keyboard-response","322","395521","0.0-3.0-1.159","","","Set_2_Only","l","false"
"null","<div style=""font-size:60px;"">+</div>","null","html-keyboard-response","323","396024","0.0-3.0-0.160","","fixation","","",""
"2657","b_a montage/ba_016.jpg","82","image-keyboard-response","324","398681","0.0-3.0-1.160","","","Set_1_Only","r","true"
"null","<div style=""font-size:60px;"">+</div>","null","html-keyboard-response","325","399186","0.0-3.0-0.161","","fixation","","",""
"1414","a_b montage/ab_095.jpg","76","image-keyboard-response","326","400601","0.0-3.0-1.161","","","Repeat","l","true"
"null","<div style=""font-size:60px;"">+</div>","null","html-keyboard-response","327","401103","0.0-3.0-0.162","","fixation","","",""
"2249","a_b montage/ab_178.jpg","82","image-keyboard-response","328","403353","0.0-3.0-1.162","","","Set_2_Only","l","false"
"null","<div style=""font-size:60px;"">+</div>","null","html-keyboard-response","329","403857","0.0-3.0-0.163","","fixation","","",""
"1151","b_a new/ba_014.jpg","76","image-keyboard-response","330","405009","0.0-3.0-1.163","","","Neither","n","false"
"null","<div style=""font-size:60px;"">+</div>","null","html-keyboard-response","331","405513","0.0-3.0-0.164","","fixation","","",""
"1600","b_a montage/ba_126.jpg","66","image-keyboard-response","332","407114","0.0-3.0-1.164","","","Update","b","true"
"null","<div style=""font-size:60px;"">+</div>","null","html-keyboard-response","333","407617","0.0-3.0-0.165","","fixation","","",""
"1744","b_a montage/ba_134.jpg","66","image-keyboard-response","334","409361","0.0-3.0-1.165","","","Update","b","true"
"null","<div style=""font-size:60px;"">+</div>","null","html-keyboard-response","335","409863","0.0-3.0-0.166","","fixation","","",""
"1321","b_a montage/ba_162.jpg","66","image-keyboard-response","336","411185","0.0-3.0-1.166","","","Set_2_Only","r","false"
"null","<div style=""font-size:60px;"">+</div>","null","html-keyboard-response","337","411686","0.0-3.0-0.167","","fixation","","",""
"1435","b_a montage/ba_003.jpg","78","image-keyboard-response","338","413121","0.0-3.0-1.167","","","Set_1_Only","r","false"
"null","<div style=""font-size:60px;"">+</div>","null","html-keyboard-response","339","413623","0.0-3.0-0.168","","fixation","","",""
"1962","b_a montage/ba_007.jpg","82","image-keyboard-response","340","415585","0.0-3.0-1.168","","","Set_1_Only","r","true"
"null","<div style=""font-size:60px;"">+</div>","null","html-keyboard-response","341","416088","0.0-3.0-0.169","","fixation","","",""
"2272","b_a montage/ba_063.jpg","82","image-keyboard-response","342","418361","0.0-3.0-1.169","","","Repeat","r","true"
"null","<div style=""font-size:60px;"">+</div>","null","html-keyboard-response","343","418865","0.0-3.0-0.170","","fixation","","",""
"1480","b_a montage/ba_132.jpg","66","image-keyboard-response","344","420345","0.0-3.0-1.170","","","Update","b","true"
"null","<div style=""font-size:60px;"">+</div>","null","html-keyboard-response","345","420846","0.0-3.0-0.171","","fixation","","",""
"2195","a_b montage/ab_096.jpg","76","image-keyboard-response","346","423041","0.0-3.0-1.171","","","Repeat","l","true"
"null","<div style=""font-size:60px;"">+</div>","null","html-keyboard-response","347","423542","0.0-3.0-0.172","","fixation","","",""
"1753","b_a montage/ba_014.jpg","76","image-keyboard-response","348","425297","0.0-3.0-1.172","","","Set_1_Only","r","false"
"null","<div style=""font-size:60px;"">+</div>","null","html-keyboard-response","349","425801","0.0-3.0-0.173","","fixation","","",""
"1214","b_a montage/ba_105.jpg","76","image-keyboard-response","350","427016","0.0-3.0-1.173","","","Update","b","false"
"null","<div style=""font-size:60px;"">+</div>","null","html-keyboard-response","351","427520","0.0-3.0-0.174","","fixation","","",""
"1376","b_a montage/ba_054.jpg","66","image-keyboard-response","352","428897","0.0-3.0-1.174","","","Repeat","r","false"
"null","<div style=""font-size:60px;"">+</div>","null","html-keyboard-response","353","429400","0.0-3.0-0.175","","fixation","","",""
"1448","b_a montage/ba_042.jpg","78","image-keyboard-response","354","430849","0.0-3.0-1.175","","","Repeat","r","false"
"null","<div style=""font-size:60px;"">+</div>","null","html-keyboard-response","355","431350","0.0-3.0-0.176","","fixation","","",""
"1609","a_b montage/ab_074.jpg","76","image-keyboard-response","356","432960","0.0-3.0-1.176","","","Repeat","l","true"
"null","<div style=""font-size:60px;"">+</div>","null","html-keyboard-response","357","433466","0.0-3.0-0.177","","fixation","","",""
"1178","a_b montage/ab_083.jpg","76","image-keyboard-response","358","434645","0.0-3.0-1.177","","","Repeat","l","true"
"null","<div style=""font-size:60px;"">+</div>","null","html-keyboard-response","359","435146","0.0-3.0-0.178","","fixation","","",""
"1574","b_a montage/ba_144.jpg","82","image-keyboard-response","360","436720","0.0-3.0-1.178","","","Update","b","false"
"null","<div style=""font-size:60px;"">+</div>","null","html-keyboard-response","361","437221","0.0-3.0-0.179","","fixation","","",""
"1740","a_b montage/ab_078.jpg","76","image-keyboard-response","362","438961","0.0-3.0-1.179","","","Repeat","l","true"
"null","<div style=""font-size:60px;"">+</div>","null","html-keyboard-response","363","439462","0.0-3.0-0.180","","fixation","","",""
"1658","a_b montage/ab_184.jpg","76","image-keyboard-response","364","441121","0.0-3.0-1.180","","","Set_2_Only","l","true"
"null","<div style=""font-size:60px;"">+</div>","null","html-keyboard-response","365","441623","0.0-3.0-0.181","","fixation","","",""
"1577","b_a montage/ba_121.jpg","66","image-keyboard-response","366","443201","0.0-3.0-1.181","","","Update","b","true"
"null","<div style=""font-size:60px;"">+</div>","null","html-keyboard-response","367","443702","0.0-3.0-0.182","","fixation","","",""
"1106","b_a montage/ba_001.jpg","78","image-keyboard-response","368","444809","0.0-3.0-1.182","","","Set_1_Only","r","false"
"null","<div style=""font-size:60px;"">+</div>","null","html-keyboard-response","369","445313","0.0-3.0-0.183","","fixation","","",""
"2423","b_a montage/ba_106.jpg","82","image-keyboard-response","370","447737","0.0-3.0-1.183","","","Update","b","false"
"null","<div style=""font-size:60px;"">+</div>","null","html-keyboard-response","371","448242","0.0-3.0-0.184","","fixation","","",""
"1990","b_a montage/ba_122.jpg","82","image-keyboard-response","372","450233","0.0-3.0-1.184","","","Update","b","false"
"null","<div style=""font-size:60px;"">+</div>","null","html-keyboard-response","373","450739","0.0-3.0-0.185","","fixation","","",""
"1734","b_a montage/ba_064.jpg","82","image-keyboard-response","374","452473","0.0-3.0-1.185","","","Repeat","r","true"
"null","<div style=""font-size:60px;"">+</div>","null","html-keyboard-response","375","452974","0.0-3.0-0.186","","fixation","","",""
"1794","b_a montage/ba_059.jpg","82","image-keyboard-response","376","454768","0.0-3.0-1.186","","","Repeat","r","true"
"null","<div style=""font-size:60px;"">+</div>","null","html-keyboard-response","377","455271","0.0-3.0-0.187","","fixation","","",""
"2306","b_a montage/ba_175.jpg","78","image-keyboard-response","378","457577","0.0-3.0-1.187","","","Set_2_Only","r","false"
"null","<div style=""font-size:60px;"">+</div>","null","html-keyboard-response","379","458078","0.0-3.0-0.188","","fixation","","",""
"915","b_a montage/ba_169.jpg","78","image-keyboard-response","380","458993","0.0-3.0-1.188","","","Set_2_Only","r","false"
"null","<div style=""font-size:60px;"">+</div>","null","html-keyboard-response","381","459496","0.0-3.0-0.189","","fixation","","",""
"1617","b_a montage/ba_151.jpg","78","image-keyboard-response","382","461113","0.0-3.0-1.189","","","Update","b","false"
"null","<div style=""font-size:60px;"">+</div>","null","html-keyboard-response","383","461618","0.0-3.0-0.190","","fixation","","",""
"935","b_a montage/ba_010.jpg","78","image-keyboard-response","384","462553","0.0-3.0-1.190","","","Set_1_Only","r","false"
"null","<div style=""font-size:60px;"">+</div>","null","html-keyboard-response","385","463058","0.0-3.0-0.191","","fixation","","",""
"1990","b_a montage/ba_164.jpg","78","image-keyboard-response","386","465049","0.0-3.0-1.191","","","Set_2_Only","r","false"
"null","<div style=""font-size:60px;"">+</div>","null","html-keyboard-response","387","465550","0.0-3.0-0.192","","fixation","","",""
"1842","a_b montage/ab_070.jpg","76","image-keyboard-response","388","467393","0.0-3.0-1.192","","","Repeat","l","true"
"null","<div style=""font-size:60px;"">+</div>","null","html-keyboard-response","389","467897","0.0-3.0-0.193","","fixation","","",""
"1176","b_a montage/ba_044.jpg","82","image-keyboard-response","390","469073","0.0-3.0-1.193","","","Repeat","r","true"
"null","<div style=""font-size:60px;"">+</div>","null","html-keyboard-response","391","469576","0.0-3.0-0.194","","fixation","","",""
"1770","b_a montage/ba_035.jpg","82","image-keyboard-response","392","471346","0.0-3.0-1.194","","","Repeat","r","true"
"null","<div style=""font-size:60px;"">+</div>","null","html-keyboard-response","393","471849","0.0-3.0-0.195","","fixation","","",""
"1230","b_a montage/ba_040.jpg","82","image-keyboard-response","394","473081","0.0-3.0-1.195","","","Repeat","r","true"
"null","<div style=""font-size:60px;"">+</div>","null","html-keyboard-response","395","473585","0.0-3.0-0.196","","fixation","","",""
"1672","b_a montage/ba_124.jpg","76","image-keyboard-response","396","475258","0.0-3.0-1.196","","","Update","b","false"
"null","<div style=""font-size:60px;"">+</div>","null","html-keyboard-response","397","475763","0.0-3.0-0.197","","fixation","","",""
"1445","a_b montage/ab_025.jpg","76","image-keyboard-response","398","477209","0.0-3.0-1.197","","","Set_1_Only","l","true"
"null","<div style=""font-size:60px;"">+</div>","null","html-keyboard-response","399","477714","0.0-3.0-0.198","","fixation","","",""
"1302","b_a montage/ba_165.jpg","78","image-keyboard-response","400","479017","0.0-3.0-1.198","","","Set_2_Only","r","false"
"null","<div style=""font-size:60px;"">+</div>","null","html-keyboard-response","401","479517","0.0-3.0-0.199","","fixation","","",""
"1146","b_a montage/ba_138.jpg","78","image-keyboard-response","402","480664","0.0-3.0-1.199","","","Update","b","false"
"null","<div style=""font-size:60px;"">+</div>","null","html-keyboard-response","403","481167","0.0-3.0-0.200","","fixation","","",""
"922","a_b montage/ab_028.jpg","78","image-keyboard-response","404","482089","0.0-3.0-1.200","","","Set_1_Only","l","false"
"null","<div style=""font-size:60px;"">+</div>","null","html-keyboard-response","405","482592","0.0-3.0-0.201","","fixation","","",""
"1887","a_b montage/ab_076.jpg","76","image-keyboard-response","406","484481","0.0-3.0-1.201","","","Repeat","l","true"
"null","<div style=""font-size:60px;"">+</div>","null","html-keyboard-response","407","484986","0.0-3.0-0.202","","fixation","","",""
"1703","b_a new/ba_012.jpg","78","image-keyboard-response","408","486690","0.0-3.0-1.202","","","Neither","n","true"
"null","<div style=""font-size:60px;"">+</div>","null","html-keyboard-response","409","487195","0.0-3.0-0.203","","fixation","","",""
"2421","a_b montage/ab_068.jpg","76","image-keyboard-response","410","489617","0.0-3.0-1.203","","","Repeat","l","true"
"null","<div style=""font-size:60px;"">+</div>","null","html-keyboard-response","411","490118","0.0-3.0-0.204","","fixation","","",""
"1554","b_a montage/ba_115.jpg","78","image-keyboard-response","412","491673","0.0-3.0-1.204","","","Update","b","false"
"null","<div style=""font-size:60px;"">+</div>","null","html-keyboard-response","413","492174","0.0-3.0-0.205","","fixation","","",""
"1994","b_a montage/ba_118.jpg","76","image-keyboard-response","414","494169","0.0-3.0-1.205","","","Update","b","false"
"null","<div style=""font-size:60px;"">+</div>","null","html-keyboard-response","415","494674","0.0-3.0-0.206","","fixation","","",""
"1318","a_b montage/ab_189.jpg","78","image-keyboard-response","416","495993","0.0-3.0-1.206","","","Set_2_Only","l","false"
"null","<div style=""font-size:60px;"">+</div>","null","html-keyboard-response","417","496497","0.0-3.0-0.207","","fixation","","",""
"976","b_a new/ba_009.jpg","78","image-keyboard-response","418","497473","0.0-3.0-1.207","","","Neither","n","true"
