"rt","stimulus","key_press","trial_type","trial_index","time_elapsed","internal_node_id","responses","test_part","stim_type","correct_response","correct"
"4624","Press any key to begin.","32","html-keyboard-response","0","4627","0.0-0.0","","","","",""
"46069","","","survey-text","1","50697","0.0-1.0","{""Q0"":""Test_128716"",""Q1"":""""}","","","",""
"1775","<p>For this phase you will see two similar images side by side on the screen I want you to tell us which of the items you have seen before in any of the previous sets of images. </p><p>If you have only seen the image on the left you will press the 'L' key on your keyboard.</p>If you have only seen the image on the right you will press the 'R' key on your keyboard.</p>If you have previously seen both of the images you will press the 'B' key on your keyboard.</p>If you have not seen either image you will press the 'N' key on your keyboard.</p><div style='width: 700px;'></div><p>Press any key to begin.</p>","32","html-keyboard-response","2","52473","0.0-2.0","","","","",""
"null","<div style=""font-size:60px;"">+</div>","null","html-keyboard-response","3","54974","0.0-3.0-0.0","","fixation","","",""
"2073","b_a montage/ba_038.jpg","76","image-keyboard-response","4","57049","0.0-3.0-1.0","","","Repeat","r","false"
"null","<div style=""font-size:60px;"">+</div>","null","html-keyboard-response","5","57550","0.0-3.0-0.1","","fixation","","",""
"2075","a_b new/ab_008.jpg","78","image-keyboard-response","6","59627","0.0-3.0-1.1","","","Neither","n","true"
"null","<div style=""font-size:60px;"">+</div>","null","html-keyboard-response","7","60128","0.0-3.0-0.2","","fixation","","",""
"1987","a_b montage/ab_109.jpg","76","image-keyboard-response","8","62115","0.0-3.0-1.2","","","Update","b","false"
"null","<div style=""font-size:60px;"">+</div>","null","html-keyboard-response","9","62616","0.0-3.0-0.3","","fixation","","",""
"null","a_b montage/ab_088.jpg","null","image-keyboard-response","10","72618","0.0-3.0-1.3","","","Repeat","l","false"
"null","<div style=""font-size:60px;"">+</div>","null","html-keyboard-response","11","73119","0.0-3.0-0.4","","fixation","","",""
"2299","a_b montage/ab_067.jpg","76","image-keyboard-response","12","75419","0.0-3.0-1.4","","","Repeat","l","true"
"null","<div style=""font-size:60px;"">+</div>","null","html-keyboard-response","13","75920","0.0-3.0-0.5","","fixation","","",""
"1434","b_a montage/ba_174.jpg","76","image-keyboard-response","14","77354","0.0-3.0-1.5","","","Set_2_Only","r","false"
"null","<div style=""font-size:60px;"">+</div>","null","html-keyboard-response","15","77856","0.0-3.0-0.6","","fixation","","",""
"1938","a_b montage/ab_103.jpg","78","image-keyboard-response","16","79794","0.0-3.0-1.6","","","Update","b","false"
"null","<div style=""font-size:60px;"">+</div>","null","html-keyboard-response","17","80295","0.0-3.0-0.7","","fixation","","",""
"2275","a_b montage/ab_129.jpg","76","image-keyboard-response","18","82570","0.0-3.0-1.7","","","Update","b","false"
"null","<div style=""font-size:60px;"">+</div>","null","html-keyboard-response","19","83071","0.0-3.0-0.8","","fixation","","",""
"2266","a_b montage/ab_130.jpg","82","image-keyboard-response","20","85338","0.0-3.0-1.8","","","Update","b","false"
"null","<div style=""font-size:60px;"">+</div>","null","html-keyboard-response","21","85839","0.0-3.0-0.9","","fixation","","",""
"2403","a_b montage/ab_181.jpg","76","image-keyboard-response","22","88243","0.0-3.0-1.9","","","Set_2_Only","l","true"
"null","<div style=""font-size:60px;"">+</div>","null","html-keyboard-response","23","88743","0.0-3.0-0.10","","fixation","","",""
"2281","a_b montage/ab_179.jpg","78","image-keyboard-response","24","91026","0.0-3.0-1.10","","","Set_2_Only","l","false"
"null","<div style=""font-size:60px;"">+</div>","null","html-keyboard-response","25","91526","0.0-3.0-0.11","","fixation","","",""
"1922","a_b new/ab_016.jpg","78","image-keyboard-response","26","93450","0.0-3.0-1.11","","","Neither","n","true"
"null","<div style=""font-size:60px;"">+</div>","null","html-keyboard-response","27","93951","0.0-3.0-0.12","","fixation","","",""
"2561","a_b montage/ab_153.jpg","76","image-keyboard-response","28","96513","0.0-3.0-1.12","","","Update","b","false"
"null","<div style=""font-size:60px;"">+</div>","null","html-keyboard-response","29","97015","0.0-3.0-0.13","","fixation","","",""
"1634","b_a montage/ba_009.jpg","66","image-keyboard-response","30","98649","0.0-3.0-1.13","","","Set_1_Only","r","false"
"null","<div style=""font-size:60px;"">+</div>","null","html-keyboard-response","31","99151","0.0-3.0-0.14","","fixation","","",""
"2442","a_b montage/ab_141.jpg","76","image-keyboard-response","32","101593","0.0-3.0-1.14","","","Update","b","false"
"null","<div style=""font-size:60px;"">+</div>","null","html-keyboard-response","33","102094","0.0-3.0-0.15","","fixation","","",""
"2491","a_b montage/ab_079.jpg","66","image-keyboard-response","34","104585","0.0-3.0-1.15","","","Repeat","l","false"
"null","<div style=""font-size:60px;"">+</div>","null","html-keyboard-response","35","105086","0.0-3.0-0.16","","fixation","","",""
"1307","b_a montage/ba_176.jpg","78","image-keyboard-response","36","106393","0.0-3.0-1.16","","","Set_2_Only","r","false"
"null","<div style=""font-size:60px;"">+</div>","null","html-keyboard-response","37","106894","0.0-3.0-0.17","","fixation","","",""
"787","a_b montage/ab_017.jpg","78","image-keyboard-response","38","107681","0.0-3.0-1.17","","","Set_1_Only","l","false"
"null","<div style=""font-size:60px;"">+</div>","null","html-keyboard-response","39","108182","0.0-3.0-0.18","","fixation","","",""
"2234","a_b montage/ab_069.jpg","82","image-keyboard-response","40","110418","0.0-3.0-1.18","","","Repeat","l","false"
"null","<div style=""font-size:60px;"">+</div>","null","html-keyboard-response","41","110919","0.0-3.0-0.19","","fixation","","",""
"1818","a_b montage/ab_100.jpg","78","image-keyboard-response","42","112737","0.0-3.0-1.19","","","Update","b","false"
"null","<div style=""font-size:60px;"">+</div>","null","html-keyboard-response","43","113238","0.0-3.0-0.20","","fixation","","",""
"1049","a_b new/ab_001.jpg","78","image-keyboard-response","44","114289","0.0-3.0-1.20","","","Neither","n","true"
"null","<div style=""font-size:60px;"">+</div>","null","html-keyboard-response","45","114789","0.0-3.0-0.21","","fixation","","",""
"1010","b_a montage/ba_013.jpg","78","image-keyboard-response","46","115801","0.0-3.0-1.21","","","Set_1_Only","r","false"
"null","<div style=""font-size:60px;"">+</div>","null","html-keyboard-response","47","116301","0.0-3.0-0.22","","fixation","","",""
"null","a_b montage/ab_066.jpg","null","image-keyboard-response","48","126305","0.0-3.0-1.22","","","Repeat","l","false"
"null","<div style=""font-size:60px;"">+</div>","null","html-keyboard-response","49","126806","0.0-3.0-0.23","","fixation","","",""
"2012","b_a montage/ba_041.jpg","82","image-keyboard-response","50","128820","0.0-3.0-1.23","","","Repeat","r","true"
"null","<div style=""font-size:60px;"">+</div>","null","html-keyboard-response","51","129320","0.0-3.0-0.24","","fixation","","",""
"1497","b_a montage/ba_043.jpg","76","image-keyboard-response","52","130819","0.0-3.0-1.24","","","Repeat","r","false"
"null","<div style=""font-size:60px;"">+</div>","null","html-keyboard-response","53","131319","0.0-3.0-0.25","","fixation","","",""
"1778","a_b montage/ab_080.jpg","76","image-keyboard-response","54","133098","0.0-3.0-1.25","","","Repeat","l","true"
"null","<div style=""font-size:60px;"">+</div>","null","html-keyboard-response","55","133600","0.0-3.0-0.26","","fixation","","",""
"1186","a_b montage/ab_131.jpg","82","image-keyboard-response","56","134786","0.0-3.0-1.26","","","Update","b","false"
"null","<div style=""font-size:60px;"">+</div>","null","html-keyboard-response","57","135287","0.0-3.0-0.27","","fixation","","",""
"1795","a_b montage/ab_147.jpg","66","image-keyboard-response","58","137082","0.0-3.0-1.27","","","Update","b","true"
"null","<div style=""font-size:60px;"">+</div>","null","html-keyboard-response","59","137583","0.0-3.0-0.28","","fixation","","",""
"2011","b_a montage/ba_047.jpg","82","image-keyboard-response","60","139594","0.0-3.0-1.28","","","Repeat","r","true"
"null","<div style=""font-size:60px;"">+</div>","null","html-keyboard-response","61","140095","0.0-3.0-0.29","","fixation","","",""
"1475","b_a montage/ba_168.jpg","78","image-keyboard-response","62","141570","0.0-3.0-1.29","","","Set_2_Only","r","false"
"null","<div style=""font-size:60px;"">+</div>","null","html-keyboard-response","63","142071","0.0-3.0-0.30","","fixation","","",""
"2203","a_b montage/ab_104.jpg","78","image-keyboard-response","64","144274","0.0-3.0-1.30","","","Update","b","false"
"null","<div style=""font-size:60px;"">+</div>","null","html-keyboard-response","65","144774","0.0-3.0-0.31","","fixation","","",""
"1659","a_b montage/ab_159.jpg","82","image-keyboard-response","66","146434","0.0-3.0-1.31","","","Update","b","false"
"null","<div style=""font-size:60px;"">+</div>","null","html-keyboard-response","67","146934","0.0-3.0-0.32","","fixation","","",""
"1530","a_b montage/ab_091.jpg","76","image-keyboard-response","68","148466","0.0-3.0-1.32","","","Repeat","l","true"
"null","<div style=""font-size:60px;"">+</div>","null","html-keyboard-response","69","148969","0.0-3.0-0.33","","fixation","","",""
"2160","a_b montage/ab_185.jpg","66","image-keyboard-response","70","151130","0.0-3.0-1.33","","","Set_2_Only","l","false"
"null","<div style=""font-size:60px;"">+</div>","null","html-keyboard-response","71","151631","0.0-3.0-0.34","","fixation","","",""
"1065","a_b montage/ab_107.jpg","78","image-keyboard-response","72","152697","0.0-3.0-1.34","","","Update","b","false"
"null","<div style=""font-size:60px;"">+</div>","null","html-keyboard-response","73","153198","0.0-3.0-0.35","","fixation","","",""
"null","b_a montage/ba_163.jpg","null","image-keyboard-response","74","163200","0.0-3.0-1.35","","","Set_2_Only","r","false"
"null","<div style=""font-size:60px;"">+</div>","null","html-keyboard-response","75","163701","0.0-3.0-0.36","","fixation","","",""
"1549","a_b new/ab_011.jpg","78","image-keyboard-response","76","165250","0.0-3.0-1.36","","","Neither","n","true"
"null","<div style=""font-size:60px;"">+</div>","null","html-keyboard-response","77","165751","0.0-3.0-0.37","","fixation","","",""
"1738","a_b montage/ab_182.jpg","82","image-keyboard-response","78","167489","0.0-3.0-1.37","","","Set_2_Only","l","false"
"null","<div style=""font-size:60px;"">+</div>","null","html-keyboard-response","79","167991","0.0-3.0-0.38","","fixation","","",""
"1474","a_b montage/ab_188.jpg","78","image-keyboard-response","80","169465","0.0-3.0-1.38","","","Set_2_Only","l","false"
"null","<div style=""font-size:60px;"">+</div>","null","html-keyboard-response","81","169966","0.0-3.0-0.39","","fixation","","",""
"1674","a_b montage/ab_099.jpg","82","image-keyboard-response","82","171641","0.0-3.0-1.39","","","Update","b","false"
"null","<div style=""font-size:60px;"">+</div>","null","html-keyboard-response","83","172141","0.0-3.0-0.40","","fixation","","",""
"1284","a_b montage/ab_127.jpg","82","image-keyboard-response","84","173425","0.0-3.0-1.40","","","Update","b","false"
"null","<div style=""font-size:60px;"">+</div>","null","html-keyboard-response","85","173925","0.0-3.0-0.41","","fixation","","",""
"1467","b_a montage/ba_050.jpg","82","image-keyboard-response","86","175393","0.0-3.0-1.41","","","Repeat","r","true"
"null","<div style=""font-size:60px;"">+</div>","null","html-keyboard-response","87","175894","0.0-3.0-0.42","","fixation","","",""
"1729","a_b montage/ab_142.jpg","82","image-keyboard-response","88","177624","0.0-3.0-1.42","","","Update","b","false"
"null","<div style=""font-size:60px;"">+</div>","null","html-keyboard-response","89","178125","0.0-3.0-0.43","","fixation","","",""
"1187","b_a montage/ba_056.jpg","82","image-keyboard-response","90","179312","0.0-3.0-1.43","","","Repeat","r","true"
"null","<div style=""font-size:60px;"">+</div>","null","html-keyboard-response","91","179813","0.0-3.0-0.44","","fixation","","",""
"1051","a_b montage/ab_150.jpg","82","image-keyboard-response","92","180864","0.0-3.0-1.44","","","Update","b","false"
"null","<div style=""font-size:60px;"">+</div>","null","html-keyboard-response","93","181365","0.0-3.0-0.45","","fixation","","",""
"1219","a_b montage/ab_020.jpg","78","image-keyboard-response","94","182584","0.0-3.0-1.45","","","Set_1_Only","l","false"
"null","<div style=""font-size:60px;"">+</div>","null","html-keyboard-response","95","183085","0.0-3.0-0.46","","fixation","","",""
"2404","a_b montage/ab_139.jpg","76","image-keyboard-response","96","185489","0.0-3.0-1.46","","","Update","b","false"
"null","<div style=""font-size:60px;"">+</div>","null","html-keyboard-response","97","185991","0.0-3.0-0.47","","fixation","","",""
"1196","a_b montage/ab_149.jpg","76","image-keyboard-response","98","187187","0.0-3.0-1.47","","","Update","b","false"
"null","<div style=""font-size:60px;"">+</div>","null","html-keyboard-response","99","187687","0.0-3.0-0.48","","fixation","","",""
"1674","a_b new/ab_003.jpg","78","image-keyboard-response","100","189363","0.0-3.0-1.48","","","Neither","n","true"
"null","<div style=""font-size:60px;"">+</div>","null","html-keyboard-response","101","189864","0.0-3.0-0.49","","fixation","","",""
"2210","a_b montage/ab_098.jpg","76","image-keyboard-response","102","192074","0.0-3.0-1.49","","","Update","b","false"
"null","<div style=""font-size:60px;"">+</div>","null","html-keyboard-response","103","192575","0.0-3.0-0.50","","fixation","","",""
"1762","a_b montage/ab_084.jpg","82","image-keyboard-response","104","194338","0.0-3.0-1.50","","","Repeat","l","false"
"null","<div style=""font-size:60px;"">+</div>","null","html-keyboard-response","105","194840","0.0-3.0-0.51","","fixation","","",""
"2107","a_b montage/ab_177.jpg","76","image-keyboard-response","106","196947","0.0-3.0-1.51","","","Set_2_Only","l","true"
"null","<div style=""font-size:60px;"">+</div>","null","html-keyboard-response","107","197448","0.0-3.0-0.52","","fixation","","",""
"1698","a_b montage/ab_111.jpg","82","image-keyboard-response","108","199146","0.0-3.0-1.52","","","Update","b","false"
"null","<div style=""font-size:60px;"">+</div>","null","html-keyboard-response","109","199647","0.0-3.0-0.53","","fixation","","",""
"1915","a_b montage/ab_090.jpg","78","image-keyboard-response","110","201562","0.0-3.0-1.53","","","Repeat","l","false"
"null","<div style=""font-size:60px;"">+</div>","null","html-keyboard-response","111","202063","0.0-3.0-0.54","","fixation","","",""
"923","b_a montage/ba_012.jpg","78","image-keyboard-response","112","202986","0.0-3.0-1.54","","","Set_1_Only","r","false"
"null","<div style=""font-size:60px;"">+</div>","null","html-keyboard-response","113","203487","0.0-3.0-0.55","","fixation","","",""
"1283","b_a montage/ba_039.jpg","78","image-keyboard-response","114","204770","0.0-3.0-1.55","","","Repeat","r","false"
"null","<div style=""font-size:60px;"">+</div>","null","html-keyboard-response","115","205271","0.0-3.0-0.56","","fixation","","",""
"1482","a_b montage/ab_125.jpg","78","image-keyboard-response","116","206754","0.0-3.0-1.56","","","Update","b","false"
"null","<div style=""font-size:60px;"">+</div>","null","html-keyboard-response","117","207254","0.0-3.0-0.57","","fixation","","",""
"2131","b_a montage/ba_172.jpg","82","image-keyboard-response","118","209387","0.0-3.0-1.57","","","Set_2_Only","r","true"
"null","<div style=""font-size:60px;"">+</div>","null","html-keyboard-response","119","209887","0.0-3.0-0.58","","fixation","","",""
"1658","b_a montage/ba_046.jpg","76","image-keyboard-response","120","211546","0.0-3.0-1.58","","","Repeat","r","false"
"null","<div style=""font-size:60px;"">+</div>","null","html-keyboard-response","121","212046","0.0-3.0-0.59","","fixation","","",""
"1386","b_a montage/ba_004.jpg","78","image-keyboard-response","122","213434","0.0-3.0-1.59","","","Set_1_Only","r","false"
"null","<div style=""font-size:60px;"">+</div>","null","html-keyboard-response","123","213934","0.0-3.0-0.60","","fixation","","",""
"1499","b_a montage/ba_062.jpg","82","image-keyboard-response","124","215434","0.0-3.0-1.60","","","Repeat","r","true"
"null","<div style=""font-size:60px;"">+</div>","null","html-keyboard-response","125","215934","0.0-3.0-0.61","","fixation","","",""
"1619","b_a montage/ba_166.jpg","82","image-keyboard-response","126","217553","0.0-3.0-1.61","","","Set_2_Only","r","true"
"null","<div style=""font-size:60px;"">+</div>","null","html-keyboard-response","127","218055","0.0-3.0-0.62","","fixation","","",""
"null","a_b montage/ab_148.jpg","null","image-keyboard-response","128","228056","0.0-3.0-1.62","","","Update","b","false"
"null","<div style=""font-size:60px;"">+</div>","null","html-keyboard-response","129","228557","0.0-3.0-0.63","","fixation","","",""
"1661","a_b montage/ab_108.jpg","82","image-keyboard-response","130","230218","0.0-3.0-1.63","","","Update","b","false"
"null","<div style=""font-size:60px;"">+</div>","null","html-keyboard-response","131","230718","0.0-3.0-0.64","","fixation","","",""
"1346","a_b new/ab_010.jpg","78","image-keyboard-response","132","232065","0.0-3.0-1.64","","","Neither","n","true"
"null","<div style=""font-size:60px;"">+</div>","null","html-keyboard-response","133","232566","0.0-3.0-0.65","","fixation","","",""
"1329","b_a montage/ba_011.jpg","82","image-keyboard-response","134","233896","0.0-3.0-1.65","","","Set_1_Only","r","true"
"null","<div style=""font-size:60px;"">+</div>","null","html-keyboard-response","135","234397","0.0-3.0-0.66","","fixation","","",""
"1490","a_b montage/ab_180.jpg","82","image-keyboard-response","136","235889","0.0-3.0-1.66","","","Set_2_Only","l","false"
"null","<div style=""font-size:60px;"">+</div>","null","html-keyboard-response","137","236389","0.0-3.0-0.67","","fixation","","",""
"1186","b_a montage/ba_015.jpg","78","image-keyboard-response","138","237576","0.0-3.0-1.67","","","Set_1_Only","r","false"
"null","<div style=""font-size:60px;"">+</div>","null","html-keyboard-response","139","238077","0.0-3.0-0.68","","fixation","","",""
"915","b_a montage/ba_058.jpg","78","image-keyboard-response","140","238992","0.0-3.0-1.68","","","Repeat","r","false"
"null","<div style=""font-size:60px;"">+</div>","null","html-keyboard-response","141","239493","0.0-3.0-0.69","","fixation","","",""
"2051","a_b montage/ab_154.jpg","82","image-keyboard-response","142","241544","0.0-3.0-1.69","","","Update","b","false"
"null","<div style=""font-size:60px;"">+</div>","null","html-keyboard-response","143","242045","0.0-3.0-0.70","","fixation","","",""
"1611","a_b montage/ab_112.jpg","78","image-keyboard-response","144","243656","0.0-3.0-1.70","","","Update","b","false"
"null","<div style=""font-size:60px;"">+</div>","null","html-keyboard-response","145","244157","0.0-3.0-0.71","","fixation","","",""
"1051","a_b montage/ab_183.jpg","66","image-keyboard-response","146","245208","0.0-3.0-1.71","","","Set_2_Only","l","false"
"null","<div style=""font-size:60px;"">+</div>","null","html-keyboard-response","147","245709","0.0-3.0-0.72","","fixation","","",""
"827","a_b montage/ab_192.jpg","66","image-keyboard-response","148","246536","0.0-3.0-1.72","","","Set_2_Only","l","false"
"null","<div style=""font-size:60px;"">+</div>","null","html-keyboard-response","149","247037","0.0-3.0-0.73","","fixation","","",""
"1878","a_b montage/ab_113.jpg","82","image-keyboard-response","150","248915","0.0-3.0-1.73","","","Update","b","false"
"null","<div style=""font-size:60px;"">+</div>","null","html-keyboard-response","151","249415","0.0-3.0-0.74","","fixation","","",""
"1587","b_a montage/ba_037.jpg","76","image-keyboard-response","152","251003","0.0-3.0-1.74","","","Repeat","r","false"
"null","<div style=""font-size:60px;"">+</div>","null","html-keyboard-response","153","251504","0.0-3.0-0.75","","fixation","","",""
"1658","a_b montage/ab_019.jpg","78","image-keyboard-response","154","253163","0.0-3.0-1.75","","","Set_1_Only","l","false"
"null","<div style=""font-size:60px;"">+</div>","null","html-keyboard-response","155","253663","0.0-3.0-0.76","","fixation","","",""
"763","a_b montage/ab_018.jpg","78","image-keyboard-response","156","254427","0.0-3.0-1.76","","","Set_1_Only","l","false"
"null","<div style=""font-size:60px;"">+</div>","null","html-keyboard-response","157","254927","0.0-3.0-0.77","","fixation","","",""
"1523","a_b montage/ab_085.jpg","76","image-keyboard-response","158","256450","0.0-3.0-1.77","","","Repeat","l","true"
"null","<div style=""font-size:60px;"">+</div>","null","html-keyboard-response","159","256951","0.0-3.0-0.78","","fixation","","",""
"898","b_a montage/ba_034.jpg","78","image-keyboard-response","160","257850","0.0-3.0-1.78","","","Repeat","r","false"
"null","<div style=""font-size:60px;"">+</div>","null","html-keyboard-response","161","258351","0.0-3.0-0.79","","fixation","","",""
"1155","a_b montage/ab_117.jpg","78","image-keyboard-response","162","259506","0.0-3.0-1.79","","","Update","b","false"
"null","<div style=""font-size:60px;"">+</div>","null","html-keyboard-response","163","260008","0.0-3.0-0.80","","fixation","","",""
"1570","a_b montage/ab_082.jpg","76","image-keyboard-response","164","261578","0.0-3.0-1.80","","","Repeat","l","true"
"null","<div style=""font-size:60px;"">+</div>","null","html-keyboard-response","165","262079","0.0-3.0-0.81","","fixation","","",""
"1635","a_b montage/ab_092.jpg","82","image-keyboard-response","166","263714","0.0-3.0-1.81","","","Repeat","l","false"
"null","<div style=""font-size:60px;"">+</div>","null","html-keyboard-response","167","264215","0.0-3.0-0.82","","fixation","","",""
"2683","b_a montage/ba_060.jpg","66","image-keyboard-response","168","266898","0.0-3.0-1.82","","","Repeat","r","false"
"null","<div style=""font-size:60px;"">+</div>","null","html-keyboard-response","169","267399","0.0-3.0-0.83","","fixation","","",""
"1123","b_a montage/ba_061.jpg","66","image-keyboard-response","170","268522","0.0-3.0-1.83","","","Repeat","r","false"
"null","<div style=""font-size:60px;"">+</div>","null","html-keyboard-response","171","269022","0.0-3.0-0.84","","fixation","","",""
"2171","a_b montage/ab_158.jpg","76","image-keyboard-response","172","271194","0.0-3.0-1.84","","","Update","b","false"
"null","<div style=""font-size:60px;"">+</div>","null","html-keyboard-response","173","271694","0.0-3.0-0.85","","fixation","","",""
"1683","a_b montage/ab_075.jpg","76","image-keyboard-response","174","273378","0.0-3.0-1.85","","","Repeat","l","true"
"null","<div style=""font-size:60px;"">+</div>","null","html-keyboard-response","175","273879","0.0-3.0-0.86","","fixation","","",""
"1337","a_b montage/ab_086.jpg","76","image-keyboard-response","176","275218","0.0-3.0-1.86","","","Repeat","l","true"
"null","<div style=""font-size:60px;"">+</div>","null","html-keyboard-response","177","275719","0.0-3.0-0.87","","fixation","","",""
"1442","a_b montage/ab_190.jpg","78","image-keyboard-response","178","277161","0.0-3.0-1.87","","","Set_2_Only","l","false"
"null","<div style=""font-size:60px;"">+</div>","null","html-keyboard-response","179","277662","0.0-3.0-0.88","","fixation","","",""
"1683","b_a montage/ba_055.jpg","82","image-keyboard-response","180","279345","0.0-3.0-1.88","","","Repeat","r","true"
"null","<div style=""font-size:60px;"">+</div>","null","html-keyboard-response","181","279846","0.0-3.0-0.89","","fixation","","",""
"1242","a_b montage/ab_135.jpg","76","image-keyboard-response","182","281089","0.0-3.0-1.89","","","Update","b","false"
"null","<div style=""font-size:60px;"">+</div>","null","html-keyboard-response","183","281590","0.0-3.0-0.90","","fixation","","",""
"1154","a_b montage/ab_137.jpg","78","image-keyboard-response","184","282745","0.0-3.0-1.90","","","Update","b","false"
"null","<div style=""font-size:60px;"">+</div>","null","html-keyboard-response","185","283246","0.0-3.0-0.91","","fixation","","",""
"1067","b_a montage/ba_006.jpg","78","image-keyboard-response","186","284313","0.0-3.0-1.91","","","Set_1_Only","r","false"
"null","<div style=""font-size:60px;"">+</div>","null","html-keyboard-response","187","284815","0.0-3.0-0.92","","fixation","","",""
"1722","b_a montage/ba_170.jpg","82","image-keyboard-response","188","286537","0.0-3.0-1.92","","","Set_2_Only","r","true"
"null","<div style=""font-size:60px;"">+</div>","null","html-keyboard-response","189","287039","0.0-3.0-0.93","","fixation","","",""
"1658","b_a montage/ba_051.jpg","78","image-keyboard-response","190","288697","0.0-3.0-1.93","","","Repeat","r","false"
"null","<div style=""font-size:60px;"">+</div>","null","html-keyboard-response","191","289198","0.0-3.0-0.94","","fixation","","",""
"1307","a_b montage/ab_128.jpg","76","image-keyboard-response","192","290505","0.0-3.0-1.94","","","Update","b","false"
"null","<div style=""font-size:60px;"">+</div>","null","html-keyboard-response","193","291006","0.0-3.0-0.95","","fixation","","",""
"1171","a_b montage/ab_145.jpg","78","image-keyboard-response","194","292177","0.0-3.0-1.95","","","Update","b","false"
"null","<div style=""font-size:60px;"">+</div>","null","html-keyboard-response","195","292678","0.0-3.0-0.96","","fixation","","",""
"867","a_b montage/ab_031.jpg","78","image-keyboard-response","196","293545","0.0-3.0-1.96","","","Set_1_Only","l","false"
"null","<div style=""font-size:60px;"">+</div>","null","html-keyboard-response","197","294046","0.0-3.0-0.97","","fixation","","",""
"1738","a_b montage/ab_071.jpg","76","image-keyboard-response","198","295785","0.0-3.0-1.97","","","Repeat","l","true"
"null","<div style=""font-size:60px;"">+</div>","null","html-keyboard-response","199","296286","0.0-3.0-0.98","","fixation","","",""
"1746","b_a montage/ba_120.jpg","66","image-keyboard-response","200","298033","0.0-3.0-1.98","","","Update","b","true"
"null","<div style=""font-size:60px;"">+</div>","null","html-keyboard-response","201","298534","0.0-3.0-0.99","","fixation","","",""
"1586","b_a montage/ba_143.jpg","66","image-keyboard-response","202","300120","0.0-3.0-1.99","","","Update","b","true"
"null","<div style=""font-size:60px;"">+</div>","null","html-keyboard-response","203","300621","0.0-3.0-0.100","","fixation","","",""
"858","b_a montage/ba_146.jpg","78","image-keyboard-response","204","301481","0.0-3.0-1.100","","","Update","b","false"
"null","<div style=""font-size:60px;"">+</div>","null","html-keyboard-response","205","301982","0.0-3.0-0.101","","fixation","","",""
"745","a_b new/ab_015.jpg","78","image-keyboard-response","206","302728","0.0-3.0-1.101","","","Neither","n","true"
"null","<div style=""font-size:60px;"">+</div>","null","html-keyboard-response","207","303230","0.0-3.0-0.102","","fixation","","",""
"1770","b_a montage/ba_097.jpg","82","image-keyboard-response","208","305000","0.0-3.0-1.102","","","Update","b","false"
"null","<div style=""font-size:60px;"">+</div>","null","html-keyboard-response","209","305501","0.0-3.0-0.103","","fixation","","",""
"787","b_a montage/ba_036.jpg","78","image-keyboard-response","210","306288","0.0-3.0-1.103","","","Repeat","r","false"
"null","<div style=""font-size:60px;"">+</div>","null","html-keyboard-response","211","306789","0.0-3.0-0.104","","fixation","","",""
"1851","b_a montage/ba_136.jpg","66","image-keyboard-response","212","308640","0.0-3.0-1.104","","","Update","b","true"
"null","<div style=""font-size:60px;"">+</div>","null","html-keyboard-response","213","309144","0.0-3.0-0.105","","fixation","","",""
"1130","a_b montage/ab_073.jpg","78","image-keyboard-response","214","310275","0.0-3.0-1.105","","","Repeat","l","false"
"null","<div style=""font-size:60px;"">+</div>","null","html-keyboard-response","215","310776","0.0-3.0-0.106","","fixation","","",""
"1427","b_a montage/ba_133.jpg","66","image-keyboard-response","216","312203","0.0-3.0-1.106","","","Update","b","true"
"null","<div style=""font-size:60px;"">+</div>","null","html-keyboard-response","217","312703","0.0-3.0-0.107","","fixation","","",""
"971","b_a montage/ba_045.jpg","66","image-keyboard-response","218","313675","0.0-3.0-1.107","","","Repeat","r","false"
"null","<div style=""font-size:60px;"">+</div>","null","html-keyboard-response","219","314176","0.0-3.0-0.108","","fixation","","",""
"842","a_b montage/ab_081.jpg","66","image-keyboard-response","220","315019","0.0-3.0-1.108","","","Repeat","l","false"
"null","<div style=""font-size:60px;"">+</div>","null","html-keyboard-response","221","315519","0.0-3.0-0.109","","fixation","","",""
"811","a_b montage/ab_089.jpg","66","image-keyboard-response","222","316331","0.0-3.0-1.109","","","Repeat","l","false"
"null","<div style=""font-size:60px;"">+</div>","null","html-keyboard-response","223","316831","0.0-3.0-0.110","","fixation","","",""
"1083","a_b new/ab_005.jpg","78","image-keyboard-response","224","317915","0.0-3.0-1.110","","","Neither","n","true"
"null","<div style=""font-size:60px;"">+</div>","null","html-keyboard-response","225","318417","0.0-3.0-0.111","","fixation","","",""
"1096","b_a montage/ba_053.jpg","78","image-keyboard-response","226","319514","0.0-3.0-1.111","","","Repeat","r","false"
"null","<div style=""font-size:60px;"">+</div>","null","html-keyboard-response","227","320015","0.0-3.0-0.112","","fixation","","",""
"770","b_a montage/ba_119.jpg","78","image-keyboard-response","228","320786","0.0-3.0-1.112","","","Update","b","false"
"null","<div style=""font-size:60px;"">+</div>","null","html-keyboard-response","229","321287","0.0-3.0-0.113","","fixation","","",""
"2306","b_a montage/ba_171.jpg","66","image-keyboard-response","230","323594","0.0-3.0-1.113","","","Set_2_Only","r","false"
"null","<div style=""font-size:60px;"">+</div>","null","html-keyboard-response","231","324096","0.0-3.0-0.114","","fixation","","",""
"890","b_a montage/ba_110.jpg","66","image-keyboard-response","232","324986","0.0-3.0-1.114","","","Update","b","true"
"null","<div style=""font-size:60px;"">+</div>","null","html-keyboard-response","233","325487","0.0-3.0-0.115","","fixation","","",""
"1443","b_a montage/ba_116.jpg","66","image-keyboard-response","234","326930","0.0-3.0-1.115","","","Update","b","true"
"null","<div style=""font-size:60px;"">+</div>","null","html-keyboard-response","235","327431","0.0-3.0-0.116","","fixation","","",""
"1251","a_b montage/ab_024.jpg","78","image-keyboard-response","236","328682","0.0-3.0-1.116","","","Set_1_Only","l","false"
"null","<div style=""font-size:60px;"">+</div>","null","html-keyboard-response","237","329183","0.0-3.0-0.117","","fixation","","",""
"780","a_b montage/ab_026.jpg","78","image-keyboard-response","238","329963","0.0-3.0-1.117","","","Set_1_Only","l","false"
"null","<div style=""font-size:60px;"">+</div>","null","html-keyboard-response","239","330464","0.0-3.0-0.118","","fixation","","",""
"1474","b_a montage/ba_052.jpg","66","image-keyboard-response","240","331938","0.0-3.0-1.118","","","Repeat","r","false"
"null","<div style=""font-size:60px;"">+</div>","null","html-keyboard-response","241","332439","0.0-3.0-0.119","","fixation","","",""
"2171","a_b montage/ab_094.jpg","76","image-keyboard-response","242","334610","0.0-3.0-1.119","","","Repeat","l","true"
"null","<div style=""font-size:60px;"">+</div>","null","html-keyboard-response","243","335111","0.0-3.0-0.120","","fixation","","",""
"1162","b_a montage/ba_101.jpg","78","image-keyboard-response","244","336274","0.0-3.0-1.120","","","Update","b","false"
"null","<div style=""font-size:60px;"">+</div>","null","html-keyboard-response","245","336774","0.0-3.0-0.121","","fixation","","",""
"1755","b_a montage/ba_152.jpg","76","image-keyboard-response","246","338530","0.0-3.0-1.121","","","Update","b","false"
"null","<div style=""font-size:60px;"">+</div>","null","html-keyboard-response","247","339030","0.0-3.0-0.122","","fixation","","",""
"1579","a_b montage/ab_093.jpg","76","image-keyboard-response","248","340610","0.0-3.0-1.122","","","Repeat","l","true"
"null","<div style=""font-size:60px;"">+</div>","null","html-keyboard-response","249","341111","0.0-3.0-0.123","","fixation","","",""
"1073","a_b new/ab_007.jpg","78","image-keyboard-response","250","342186","0.0-3.0-1.123","","","Neither","n","true"
"null","<div style=""font-size:60px;"">+</div>","null","html-keyboard-response","251","342686","0.0-3.0-0.124","","fixation","","",""
"1562","b_a montage/ba_102.jpg","82","image-keyboard-response","252","344249","0.0-3.0-1.124","","","Update","b","false"
"null","<div style=""font-size:60px;"">+</div>","null","html-keyboard-response","253","344750","0.0-3.0-0.125","","fixation","","",""
"682","a_b montage/ab_021.jpg","78","image-keyboard-response","254","345433","0.0-3.0-1.125","","","Set_1_Only","l","false"
"null","<div style=""font-size:60px;"">+</div>","null","html-keyboard-response","255","345934","0.0-3.0-0.126","","fixation","","",""
"1475","a_b montage/ab_065.jpg","76","image-keyboard-response","256","347409","0.0-3.0-1.126","","","Repeat","l","true"
"null","<div style=""font-size:60px;"">+</div>","null","html-keyboard-response","257","347911","0.0-3.0-0.127","","fixation","","",""
"1018","a_b new/ab_002.jpg","78","image-keyboard-response","258","348929","0.0-3.0-1.127","","","Neither","n","true"
"null","<div style=""font-size:60px;"">+</div>","null","html-keyboard-response","259","349431","0.0-3.0-0.128","","fixation","","",""
"1458","b_a montage/ba_057.jpg","76","image-keyboard-response","260","350889","0.0-3.0-1.128","","","Repeat","r","false"
"null","<div style=""font-size:60px;"">+</div>","null","html-keyboard-response","261","351390","0.0-3.0-0.129","","fixation","","",""
"1083","b_a montage/ba_167.jpg","78","image-keyboard-response","262","352473","0.0-3.0-1.129","","","Set_2_Only","r","false"
"null","<div style=""font-size:60px;"">+</div>","null","html-keyboard-response","263","352974","0.0-3.0-0.130","","fixation","","",""
"1587","b_a montage/ba_160.jpg","78","image-keyboard-response","264","354561","0.0-3.0-1.130","","","Update","b","false"
"null","<div style=""font-size:60px;"">+</div>","null","html-keyboard-response","265","355062","0.0-3.0-0.131","","fixation","","",""
"835","b_a montage/ba_005.jpg","78","image-keyboard-response","266","355897","0.0-3.0-1.131","","","Set_1_Only","r","false"
"null","<div style=""font-size:60px;"">+</div>","null","html-keyboard-response","267","356398","0.0-3.0-0.132","","fixation","","",""
"1475","b_a montage/ba_140.jpg","82","image-keyboard-response","268","357873","0.0-3.0-1.132","","","Update","b","false"
"null","<div style=""font-size:60px;"">+</div>","null","html-keyboard-response","269","358374","0.0-3.0-0.133","","fixation","","",""
"1362","b_a new/ba_006.jpg","78","image-keyboard-response","270","359737","0.0-3.0-1.133","","","Neither","n","true"
"null","<div style=""font-size:60px;"">+</div>","null","html-keyboard-response","271","360237","0.0-3.0-0.134","","fixation","","",""
"1499","b_a montage/ba_123.jpg","76","image-keyboard-response","272","361737","0.0-3.0-1.134","","","Update","b","false"
"null","<div style=""font-size:60px;"">+</div>","null","html-keyboard-response","273","362237","0.0-3.0-0.135","","fixation","","",""
"1466","b_a montage/ba_033.jpg","82","image-keyboard-response","274","363704","0.0-3.0-1.135","","","Repeat","r","true"
"null","<div style=""font-size:60px;"">+</div>","null","html-keyboard-response","275","364205","0.0-3.0-0.136","","fixation","","",""
"994","a_b montage/ab_077.jpg","78","image-keyboard-response","276","365201","0.0-3.0-1.136","","","Repeat","l","false"
"null","<div style=""font-size:60px;"">+</div>","null","html-keyboard-response","277","365702","0.0-3.0-0.137","","fixation","","",""
"618","a_b montage/ab_032.jpg","78","image-keyboard-response","278","366321","0.0-3.0-1.137","","","Set_1_Only","l","false"
"null","<div style=""font-size:60px;"">+</div>","null","html-keyboard-response","279","366821","0.0-3.0-0.138","","fixation","","",""
"1355","b_a montage/ba_156.jpg","82","image-keyboard-response","280","368176","0.0-3.0-1.138","","","Update","b","false"
"null","<div style=""font-size:60px;"">+</div>","null","html-keyboard-response","281","368677","0.0-3.0-0.139","","fixation","","",""
"949","a_b montage/ab_022.jpg","78","image-keyboard-response","282","369627","0.0-3.0-1.139","","","Set_1_Only","l","false"
"null","<div style=""font-size:60px;"">+</div>","null","html-keyboard-response","283","370128","0.0-3.0-0.140","","fixation","","",""
"1193","b_a montage/ba_114.jpg","66","image-keyboard-response","284","371322","0.0-3.0-1.140","","","Update","b","true"
"null","<div style=""font-size:60px;"">+</div>","null","html-keyboard-response","285","371823","0.0-3.0-0.141","","fixation","","",""
"1074","b_a new/ba_013.jpg","78","image-keyboard-response","286","372899","0.0-3.0-1.141","","","Neither","n","true"
"null","<div style=""font-size:60px;"">+</div>","null","html-keyboard-response","287","373399","0.0-3.0-0.142","","fixation","","",""
"906","a_b montage/ab_023.jpg","78","image-keyboard-response","288","374307","0.0-3.0-1.142","","","Set_1_Only","l","false"
"null","<div style=""font-size:60px;"">+</div>","null","html-keyboard-response","289","374807","0.0-3.0-0.143","","fixation","","",""
"1682","a_b montage/ab_087.jpg","76","image-keyboard-response","290","376490","0.0-3.0-1.143","","","Repeat","l","true"
"null","<div style=""font-size:60px;"">+</div>","null","html-keyboard-response","291","376991","0.0-3.0-0.144","","fixation","","",""
"1267","b_a montage/ba_155.jpg","66","image-keyboard-response","292","378258","0.0-3.0-1.144","","","Update","b","true"
"null","<div style=""font-size:60px;"">+</div>","null","html-keyboard-response","293","378759","0.0-3.0-0.145","","fixation","","",""
"1131","b_a montage/ba_002.jpg","78","image-keyboard-response","294","379890","0.0-3.0-1.145","","","Set_1_Only","r","false"
"null","<div style=""font-size:60px;"">+</div>","null","html-keyboard-response","295","380392","0.0-3.0-0.146","","fixation","","",""
"1538","b_a montage/ba_161.jpg","66","image-keyboard-response","296","381930","0.0-3.0-1.146","","","Set_2_Only","r","false"
"null","<div style=""font-size:60px;"">+</div>","null","html-keyboard-response","297","382431","0.0-3.0-0.147","","fixation","","",""
"2260","a_b montage/ab_029.jpg","76","image-keyboard-response","298","384691","0.0-3.0-1.147","","","Set_1_Only","l","true"
"null","<div style=""font-size:60px;"">+</div>","null","html-keyboard-response","299","385193","0.0-3.0-0.148","","fixation","","",""
"1201","a_b montage/ab_030.jpg","66","image-keyboard-response","300","386394","0.0-3.0-1.148","","","Set_1_Only","l","false"
"null","<div style=""font-size:60px;"">+</div>","null","html-keyboard-response","301","386895","0.0-3.0-0.149","","fixation","","",""
"1322","b_a new/ba_004.jpg","78","image-keyboard-response","302","388218","0.0-3.0-1.149","","","Neither","n","true"
"null","<div style=""font-size:60px;"">+</div>","null","html-keyboard-response","303","388718","0.0-3.0-0.150","","fixation","","",""
"1155","b_a montage/ba_049.jpg","66","image-keyboard-response","304","389874","0.0-3.0-1.150","","","Repeat","r","false"
"null","<div style=""font-size:60px;"">+</div>","null","html-keyboard-response","305","390375","0.0-3.0-0.151","","fixation","","",""
"882","a_b montage/ab_027.jpg","78","image-keyboard-response","306","391258","0.0-3.0-1.151","","","Set_1_Only","l","false"
"null","<div style=""font-size:60px;"">+</div>","null","html-keyboard-response","307","391758","0.0-3.0-0.152","","fixation","","",""
"747","b_a montage/ba_008.jpg","78","image-keyboard-response","308","392506","0.0-3.0-1.152","","","Set_1_Only","r","false"
"null","<div style=""font-size:60px;"">+</div>","null","html-keyboard-response","309","393007","0.0-3.0-0.153","","fixation","","",""
"1473","b_a montage/ba_048.jpg","66","image-keyboard-response","310","394481","0.0-3.0-1.153","","","Repeat","r","false"
"null","<div style=""font-size:60px;"">+</div>","null","html-keyboard-response","311","394982","0.0-3.0-0.154","","fixation","","",""
"2002","a_b montage/ab_191.jpg","76","image-keyboard-response","312","396986","0.0-3.0-1.154","","","Set_2_Only","l","true"
"null","<div style=""font-size:60px;"">+</div>","null","html-keyboard-response","313","397486","0.0-3.0-0.155","","fixation","","",""
"2090","a_b montage/ab_186.jpg","76","image-keyboard-response","314","399577","0.0-3.0-1.155","","","Set_2_Only","l","true"
"null","<div style=""font-size:60px;"">+</div>","null","html-keyboard-response","315","400079","0.0-3.0-0.156","","fixation","","",""
"1362","b_a montage/ba_157.jpg","66","image-keyboard-response","316","401441","0.0-3.0-1.156","","","Update","b","true"
"null","<div style=""font-size:60px;"">+</div>","null","html-keyboard-response","317","401943","0.0-3.0-0.157","","fixation","","",""
"970","a_b montage/ab_072.jpg","66","image-keyboard-response","318","402913","0.0-3.0-1.157","","","Repeat","l","false"
"null","<div style=""font-size:60px;"">+</div>","null","html-keyboard-response","319","403415","0.0-3.0-0.158","","fixation","","",""
"650","b_a montage/ba_173.jpg","66","image-keyboard-response","320","404065","0.0-3.0-1.158","","","Set_2_Only","r","false"
"null","<div style=""font-size:60px;"">+</div>","null","html-keyboard-response","321","404566","0.0-3.0-0.159","","fixation","","",""
"1194","a_b montage/ab_187.jpg","78","image-keyboard-response","322","405761","0.0-3.0-1.159","","","Set_2_Only","l","false"
"null","<div style=""font-size:60px;"">+</div>","null","html-keyboard-response","323","406262","0.0-3.0-0.160","","fixation","","",""
"1044","b_a montage/ba_016.jpg","78","image-keyboard-response","324","407306","0.0-3.0-1.160","","","Set_1_Only","r","false"
"null","<div style=""font-size:60px;"">+</div>","null","html-keyboard-response","325","407808","0.0-3.0-0.161","","fixation","","",""
"929","a_b montage/ab_095.jpg","78","image-keyboard-response","326","408737","0.0-3.0-1.161","","","Repeat","l","false"
"null","<div style=""font-size:60px;"">+</div>","null","html-keyboard-response","327","409238","0.0-3.0-0.162","","fixation","","",""
"1754","a_b montage/ab_178.jpg","76","image-keyboard-response","328","410993","0.0-3.0-1.162","","","Set_2_Only","l","true"
"null","<div style=""font-size:60px;"">+</div>","null","html-keyboard-response","329","411493","0.0-3.0-0.163","","fixation","","",""
"1163","b_a new/ba_014.jpg","78","image-keyboard-response","330","412657","0.0-3.0-1.163","","","Neither","n","true"
"null","<div style=""font-size:60px;"">+</div>","null","html-keyboard-response","331","413158","0.0-3.0-0.164","","fixation","","",""
"1418","b_a montage/ba_126.jpg","78","image-keyboard-response","332","414577","0.0-3.0-1.164","","","Update","b","false"
"null","<div style=""font-size:60px;"">+</div>","null","html-keyboard-response","333","415077","0.0-3.0-0.165","","fixation","","",""
"835","b_a montage/ba_134.jpg","78","image-keyboard-response","334","415913","0.0-3.0-1.165","","","Update","b","false"
"null","<div style=""font-size:60px;"">+</div>","null","html-keyboard-response","335","416414","0.0-3.0-0.166","","fixation","","",""
"857","b_a montage/ba_162.jpg","78","image-keyboard-response","336","417273","0.0-3.0-1.166","","","Set_2_Only","r","false"
"null","<div style=""font-size:60px;"">+</div>","null","html-keyboard-response","337","417773","0.0-3.0-0.167","","fixation","","",""
"723","b_a montage/ba_003.jpg","78","image-keyboard-response","338","418498","0.0-3.0-1.167","","","Set_1_Only","r","false"
"null","<div style=""font-size:60px;"">+</div>","null","html-keyboard-response","339","418998","0.0-3.0-0.168","","fixation","","",""
"594","b_a montage/ba_007.jpg","78","image-keyboard-response","340","419593","0.0-3.0-1.168","","","Set_1_Only","r","false"
"null","<div style=""font-size:60px;"">+</div>","null","html-keyboard-response","341","420094","0.0-3.0-0.169","","fixation","","",""
"1218","b_a montage/ba_063.jpg","66","image-keyboard-response","342","421312","0.0-3.0-1.169","","","Repeat","r","false"
"null","<div style=""font-size:60px;"">+</div>","null","html-keyboard-response","343","421813","0.0-3.0-0.170","","fixation","","",""
"1083","b_a montage/ba_132.jpg","78","image-keyboard-response","344","422896","0.0-3.0-1.170","","","Update","b","false"
"null","<div style=""font-size:60px;"">+</div>","null","html-keyboard-response","345","423397","0.0-3.0-0.171","","fixation","","",""
"1178","a_b montage/ab_096.jpg","66","image-keyboard-response","346","424576","0.0-3.0-1.171","","","Repeat","l","false"
"null","<div style=""font-size:60px;"">+</div>","null","html-keyboard-response","347","425078","0.0-3.0-0.172","","fixation","","",""
"946","b_a montage/ba_014.jpg","78","image-keyboard-response","348","426024","0.0-3.0-1.172","","","Set_1_Only","r","false"
"null","<div style=""font-size:60px;"">+</div>","null","html-keyboard-response","349","426525","0.0-3.0-0.173","","fixation","","",""
"1003","b_a montage/ba_105.jpg","66","image-keyboard-response","350","427528","0.0-3.0-1.173","","","Update","b","true"
"null","<div style=""font-size:60px;"">+</div>","null","html-keyboard-response","351","428029","0.0-3.0-0.174","","fixation","","",""
"651","b_a montage/ba_054.jpg","66","image-keyboard-response","352","428680","0.0-3.0-1.174","","","Repeat","r","false"
"null","<div style=""font-size:60px;"">+</div>","null","html-keyboard-response","353","429181","0.0-3.0-0.175","","fixation","","",""
"918","b_a montage/ba_042.jpg","78","image-keyboard-response","354","430099","0.0-3.0-1.175","","","Repeat","r","false"
"null","<div style=""font-size:60px;"">+</div>","null","html-keyboard-response","355","430599","0.0-3.0-0.176","","fixation","","",""
"1458","a_b montage/ab_074.jpg","76","image-keyboard-response","356","432058","0.0-3.0-1.176","","","Repeat","l","true"
"null","<div style=""font-size:60px;"">+</div>","null","html-keyboard-response","357","432559","0.0-3.0-0.177","","fixation","","",""
"1378","a_b montage/ab_083.jpg","78","image-keyboard-response","358","433939","0.0-3.0-1.177","","","Repeat","l","false"
"null","<div style=""font-size:60px;"">+</div>","null","html-keyboard-response","359","434439","0.0-3.0-0.178","","fixation","","",""
"2498","b_a montage/ba_144.jpg","66","image-keyboard-response","360","436938","0.0-3.0-1.178","","","Update","b","true"
"null","<div style=""font-size:60px;"">+</div>","null","html-keyboard-response","361","437440","0.0-3.0-0.179","","fixation","","",""
"738","a_b montage/ab_078.jpg","66","image-keyboard-response","362","438178","0.0-3.0-1.179","","","Repeat","l","false"
"null","<div style=""font-size:60px;"">+</div>","null","html-keyboard-response","363","438679","0.0-3.0-0.180","","fixation","","",""
"883","a_b montage/ab_184.jpg","66","image-keyboard-response","364","439563","0.0-3.0-1.180","","","Set_2_Only","l","false"
"null","<div style=""font-size:60px;"">+</div>","null","html-keyboard-response","365","440064","0.0-3.0-0.181","","fixation","","",""
"1834","b_a montage/ba_121.jpg","76","image-keyboard-response","366","441898","0.0-3.0-1.181","","","Update","b","false"
"null","<div style=""font-size:60px;"">+</div>","null","html-keyboard-response","367","442399","0.0-3.0-0.182","","fixation","","",""
"1474","b_a montage/ba_001.jpg","78","image-keyboard-response","368","443874","0.0-3.0-1.182","","","Set_1_Only","r","false"
"null","<div style=""font-size:60px;"">+</div>","null","html-keyboard-response","369","444376","0.0-3.0-0.183","","fixation","","",""
"1578","b_a montage/ba_106.jpg","66","image-keyboard-response","370","445954","0.0-3.0-1.183","","","Update","b","true"
"null","<div style=""font-size:60px;"">+</div>","null","html-keyboard-response","371","446455","0.0-3.0-0.184","","fixation","","",""
"1970","b_a montage/ba_122.jpg","82","image-keyboard-response","372","448426","0.0-3.0-1.184","","","Update","b","false"
"null","<div style=""font-size:60px;"">+</div>","null","html-keyboard-response","373","448926","0.0-3.0-0.185","","fixation","","",""
"1395","b_a montage/ba_064.jpg","66","image-keyboard-response","374","450322","0.0-3.0-1.185","","","Repeat","r","false"
"null","<div style=""font-size:60px;"">+</div>","null","html-keyboard-response","375","450823","0.0-3.0-0.186","","fixation","","",""
"858","b_a montage/ba_059.jpg","66","image-keyboard-response","376","451682","0.0-3.0-1.186","","","Repeat","r","false"
"null","<div style=""font-size:60px;"">+</div>","null","html-keyboard-response","377","452182","0.0-3.0-0.187","","fixation","","",""
"1098","b_a montage/ba_175.jpg","78","image-keyboard-response","378","453282","0.0-3.0-1.187","","","Set_2_Only","r","false"
"null","<div style=""font-size:60px;"">+</div>","null","html-keyboard-response","379","453782","0.0-3.0-0.188","","fixation","","",""
"722","b_a montage/ba_169.jpg","78","image-keyboard-response","380","454506","0.0-3.0-1.188","","","Set_2_Only","r","false"
"null","<div style=""font-size:60px;"">+</div>","null","html-keyboard-response","381","455006","0.0-3.0-0.189","","fixation","","",""
"866","b_a montage/ba_151.jpg","78","image-keyboard-response","382","455873","0.0-3.0-1.189","","","Update","b","false"
"null","<div style=""font-size:60px;"">+</div>","null","html-keyboard-response","383","456374","0.0-3.0-0.190","","fixation","","",""
"674","b_a montage/ba_010.jpg","78","image-keyboard-response","384","457049","0.0-3.0-1.190","","","Set_1_Only","r","false"
"null","<div style=""font-size:60px;"">+</div>","null","html-keyboard-response","385","457550","0.0-3.0-0.191","","fixation","","",""
"810","b_a montage/ba_164.jpg","78","image-keyboard-response","386","458361","0.0-3.0-1.191","","","Set_2_Only","r","false"
"null","<div style=""font-size:60px;"">+</div>","null","html-keyboard-response","387","458863","0.0-3.0-0.192","","fixation","","",""
"1714","a_b montage/ab_070.jpg","76","image-keyboard-response","388","460577","0.0-3.0-1.192","","","Repeat","l","true"
"null","<div style=""font-size:60px;"">+</div>","null","html-keyboard-response","389","461078","0.0-3.0-0.193","","fixation","","",""
"835","b_a montage/ba_044.jpg","78","image-keyboard-response","390","461913","0.0-3.0-1.193","","","Repeat","r","false"
"null","<div style=""font-size:60px;"">+</div>","null","html-keyboard-response","391","462414","0.0-3.0-0.194","","fixation","","",""
"618","b_a montage/ba_035.jpg","78","image-keyboard-response","392","463033","0.0-3.0-1.194","","","Repeat","r","false"
"null","<div style=""font-size:60px;"">+</div>","null","html-keyboard-response","393","463534","0.0-3.0-0.195","","fixation","","",""
"563","b_a montage/ba_040.jpg","78","image-keyboard-response","394","464097","0.0-3.0-1.195","","","Repeat","r","false"
"null","<div style=""font-size:60px;"">+</div>","null","html-keyboard-response","395","464599","0.0-3.0-0.196","","fixation","","",""
"682","b_a montage/ba_124.jpg","78","image-keyboard-response","396","465281","0.0-3.0-1.196","","","Update","b","false"
"null","<div style=""font-size:60px;"">+</div>","null","html-keyboard-response","397","465782","0.0-3.0-0.197","","fixation","","",""
"1707","a_b montage/ab_025.jpg","76","image-keyboard-response","398","467489","0.0-3.0-1.197","","","Set_1_Only","l","true"
"null","<div style=""font-size:60px;"">+</div>","null","html-keyboard-response","399","467991","0.0-3.0-0.198","","fixation","","",""
"778","b_a montage/ba_165.jpg","78","image-keyboard-response","400","468769","0.0-3.0-1.198","","","Set_2_Only","r","false"
"null","<div style=""font-size:60px;"">+</div>","null","html-keyboard-response","401","469271","0.0-3.0-0.199","","fixation","","",""
"697","b_a montage/ba_138.jpg","78","image-keyboard-response","402","469969","0.0-3.0-1.199","","","Update","b","false"
"null","<div style=""font-size:60px;"">+</div>","null","html-keyboard-response","403","470470","0.0-3.0-0.200","","fixation","","",""
"915","a_b montage/ab_028.jpg","78","image-keyboard-response","404","471386","0.0-3.0-1.200","","","Set_1_Only","l","false"
"null","<div style=""font-size:60px;"">+</div>","null","html-keyboard-response","405","471886","0.0-3.0-0.201","","fixation","","",""
"666","a_b montage/ab_076.jpg","78","image-keyboard-response","406","472553","0.0-3.0-1.201","","","Repeat","l","false"
"null","<div style=""font-size:60px;"">+</div>","null","html-keyboard-response","407","473053","0.0-3.0-0.202","","fixation","","",""
"1115","b_a new/ba_012.jpg","78","image-keyboard-response","408","474169","0.0-3.0-1.202","","","Neither","n","true"
"null","<div style=""font-size:60px;"">+</div>","null","html-keyboard-response","409","474670","0.0-3.0-0.203","","fixation","","",""
"794","a_b montage/ab_068.jpg","78","image-keyboard-response","410","475465","0.0-3.0-1.203","","","Repeat","l","false"
"null","<div style=""font-size:60px;"">+</div>","null","html-keyboard-response","411","475966","0.0-3.0-0.204","","fixation","","",""
"1168","b_a montage/ba_115.jpg","66","image-keyboard-response","412","477136","0.0-3.0-1.204","","","Update","b","true"
"null","<div style=""font-size:60px;"">+</div>","null","html-keyboard-response","413","477637","0.0-3.0-0.205","","fixation","","",""
"1563","b_a montage/ba_118.jpg","66","image-keyboard-response","414","479201","0.0-3.0-1.205","","","Update","b","true"
"null","<div style=""font-size:60px;"">+</div>","null","html-keyboard-response","415","479702","0.0-3.0-0.206","","fixation","","",""
"1097","a_b montage/ab_189.jpg","78","image-keyboard-response","416","480800","0.0-3.0-1.206","","","Set_2_Only","l","false"
"null","<div style=""font-size:60px;"">+</div>","null","html-keyboard-response","417","481301","0.0-3.0-0.207","","fixation","","",""
"835","b_a new/ba_009.jpg","78","image-keyboard-response","418","482137","0.0-3.0-1.207","","","Neither","n","true"
