"rt","stimulus","key_press","trial_type","trial_index","time_elapsed","internal_node_id","responses","test_part","stim_type","correct_response","correct"
"21733","Press any key to begin.","79","html-keyboard-response","0","21755","0.0-0.0","","","","",""
"85656","","","survey-text","1","107416","0.0-1.0","{""Q0"":""Test_128715"",""Q1"":""Test_128715""}","","","",""
"26011","<p>For this phase you will see two similar images side by side on the screen I want you to tell us which of the items you have seen before in any of the previous sets of images. </p><p>If you have only seen the image on the left you will press the 'L' key on your keyboard.</p>If you have only seen the image on the right you will press the 'R' key on your keyboard.</p>If you have previously seen both of the images you will press the 'B' key on your keyboard.</p>If you have not seen either image you will press the 'N' key on your keyboard.</p><div style='width: 700px;'></div><p>Press any key to begin.</p>","32","html-keyboard-response","2","133428","0.0-2.0","","","","",""
"null","<div style=""font-size:60px;"">+</div>","null","html-keyboard-response","3","135930","0.0-3.0-0.0","","fixation","","",""
"2312","b_a montage/ba_038.jpg","76","image-keyboard-response","4","138243","0.0-3.0-1.0","","","Repeat","r","false"
"null","<div style=""font-size:60px;"">+</div>","null","html-keyboard-response","5","138745","0.0-3.0-0.1","","fixation","","",""
"1928","a_b new/ab_008.jpg","78","image-keyboard-response","6","140673","0.0-3.0-1.1","","","Neither","n","true"
"null","<div style=""font-size:60px;"">+</div>","null","html-keyboard-response","7","141175","0.0-3.0-0.2","","fixation","","",""
"2085","a_b montage/ab_109.jpg","66","image-keyboard-response","8","143260","0.0-3.0-1.2","","","Update","b","true"
"null","<div style=""font-size:60px;"">+</div>","null","html-keyboard-response","9","143762","0.0-3.0-0.3","","fixation","","",""
"2299","a_b montage/ab_088.jpg","82","image-keyboard-response","10","146062","0.0-3.0-1.3","","","Repeat","l","false"
"null","<div style=""font-size:60px;"">+</div>","null","html-keyboard-response","11","146564","0.0-3.0-0.4","","fixation","","",""
"2019","a_b montage/ab_067.jpg","82","image-keyboard-response","12","148584","0.0-3.0-1.4","","","Repeat","l","false"
"null","<div style=""font-size:60px;"">+</div>","null","html-keyboard-response","13","149084","0.0-3.0-0.5","","fixation","","",""
"2880","b_a montage/ba_174.jpg","78","image-keyboard-response","14","151964","0.0-3.0-1.5","","","Set_2_Only","r","false"
"null","<div style=""font-size:60px;"">+</div>","null","html-keyboard-response","15","152466","0.0-3.0-0.6","","fixation","","",""
"1598","a_b montage/ab_103.jpg","82","image-keyboard-response","16","154064","0.0-3.0-1.6","","","Update","b","false"
"null","<div style=""font-size:60px;"">+</div>","null","html-keyboard-response","17","154565","0.0-3.0-0.7","","fixation","","",""
"1526","a_b montage/ab_129.jpg","82","image-keyboard-response","18","156091","0.0-3.0-1.7","","","Update","b","false"
"null","<div style=""font-size:60px;"">+</div>","null","html-keyboard-response","19","156592","0.0-3.0-0.8","","fixation","","",""
"2791","a_b montage/ab_130.jpg","66","image-keyboard-response","20","159384","0.0-3.0-1.8","","","Update","b","true"
"null","<div style=""font-size:60px;"">+</div>","null","html-keyboard-response","21","159884","0.0-3.0-0.9","","fixation","","",""
"1819","a_b montage/ab_181.jpg","66","image-keyboard-response","22","161704","0.0-3.0-1.9","","","Set_2_Only","l","false"
"null","<div style=""font-size:60px;"">+</div>","null","html-keyboard-response","23","162206","0.0-3.0-0.10","","fixation","","",""
"1252","a_b montage/ab_179.jpg","82","image-keyboard-response","24","163459","0.0-3.0-1.10","","","Set_2_Only","l","false"
"null","<div style=""font-size:60px;"">+</div>","null","html-keyboard-response","25","163961","0.0-3.0-0.11","","fixation","","",""
"1134","a_b new/ab_016.jpg","66","image-keyboard-response","26","165096","0.0-3.0-1.11","","","Neither","n","false"
"null","<div style=""font-size:60px;"">+</div>","null","html-keyboard-response","27","165596","0.0-3.0-0.12","","fixation","","",""
"1992","a_b montage/ab_153.jpg","76","image-keyboard-response","28","167589","0.0-3.0-1.12","","","Update","b","false"
"null","<div style=""font-size:60px;"">+</div>","null","html-keyboard-response","29","168091","0.0-3.0-0.13","","fixation","","",""
"2242","b_a montage/ba_009.jpg","78","image-keyboard-response","30","170334","0.0-3.0-1.13","","","Set_1_Only","r","false"
"null","<div style=""font-size:60px;"">+</div>","null","html-keyboard-response","31","170836","0.0-3.0-0.14","","fixation","","",""
"961","a_b montage/ab_141.jpg","66","image-keyboard-response","32","171798","0.0-3.0-1.14","","","Update","b","true"
"null","<div style=""font-size:60px;"">+</div>","null","html-keyboard-response","33","172300","0.0-3.0-0.15","","fixation","","",""
"1601","a_b montage/ab_079.jpg","66","image-keyboard-response","34","173903","0.0-3.0-1.15","","","Repeat","l","false"
"null","<div style=""font-size:60px;"">+</div>","null","html-keyboard-response","35","174405","0.0-3.0-0.16","","fixation","","",""
"1151","b_a montage/ba_176.jpg","76","image-keyboard-response","36","175557","0.0-3.0-1.16","","","Set_2_Only","r","false"
"null","<div style=""font-size:60px;"">+</div>","null","html-keyboard-response","37","176060","0.0-3.0-0.17","","fixation","","",""
"1267","a_b montage/ab_017.jpg","82","image-keyboard-response","38","177328","0.0-3.0-1.17","","","Set_1_Only","l","false"
"null","<div style=""font-size:60px;"">+</div>","null","html-keyboard-response","39","177831","0.0-3.0-0.18","","fixation","","",""
"1929","a_b montage/ab_069.jpg","66","image-keyboard-response","40","179761","0.0-3.0-1.18","","","Repeat","l","false"
"null","<div style=""font-size:60px;"">+</div>","null","html-keyboard-response","41","180264","0.0-3.0-0.19","","fixation","","",""
"992","a_b montage/ab_100.jpg","66","image-keyboard-response","42","181258","0.0-3.0-1.19","","","Update","b","true"
"null","<div style=""font-size:60px;"">+</div>","null","html-keyboard-response","43","181760","0.0-3.0-0.20","","fixation","","",""
"1433","a_b new/ab_001.jpg","78","image-keyboard-response","44","183193","0.0-3.0-1.20","","","Neither","n","true"
"null","<div style=""font-size:60px;"">+</div>","null","html-keyboard-response","45","183696","0.0-3.0-0.21","","fixation","","",""
"1491","b_a montage/ba_013.jpg","76","image-keyboard-response","46","185189","0.0-3.0-1.21","","","Set_1_Only","r","false"
"null","<div style=""font-size:60px;"">+</div>","null","html-keyboard-response","47","185692","0.0-3.0-0.22","","fixation","","",""
"1174","a_b montage/ab_066.jpg","82","image-keyboard-response","48","186868","0.0-3.0-1.22","","","Repeat","l","false"
"null","<div style=""font-size:60px;"">+</div>","null","html-keyboard-response","49","187370","0.0-3.0-0.23","","fixation","","",""
"1958","b_a montage/ba_041.jpg","76","image-keyboard-response","50","189330","0.0-3.0-1.23","","","Repeat","r","false"
"null","<div style=""font-size:60px;"">+</div>","null","html-keyboard-response","51","189832","0.0-3.0-0.24","","fixation","","",""
"1529","b_a montage/ba_043.jpg","66","image-keyboard-response","52","191363","0.0-3.0-1.24","","","Repeat","r","false"
"null","<div style=""font-size:60px;"">+</div>","null","html-keyboard-response","53","191865","0.0-3.0-0.25","","fixation","","",""
"1716","a_b montage/ab_080.jpg","82","image-keyboard-response","54","193583","0.0-3.0-1.25","","","Repeat","l","false"
"null","<div style=""font-size:60px;"">+</div>","null","html-keyboard-response","55","194085","0.0-3.0-0.26","","fixation","","",""
"1985","a_b montage/ab_131.jpg","66","image-keyboard-response","56","196072","0.0-3.0-1.26","","","Update","b","true"
"null","<div style=""font-size:60px;"">+</div>","null","html-keyboard-response","57","196575","0.0-3.0-0.27","","fixation","","",""
"1446","a_b montage/ab_147.jpg","82","image-keyboard-response","58","198022","0.0-3.0-1.27","","","Update","b","false"
"null","<div style=""font-size:60px;"">+</div>","null","html-keyboard-response","59","198523","0.0-3.0-0.28","","fixation","","",""
"1640","b_a montage/ba_047.jpg","76","image-keyboard-response","60","200163","0.0-3.0-1.28","","","Repeat","r","false"
"null","<div style=""font-size:60px;"">+</div>","null","html-keyboard-response","61","200665","0.0-3.0-0.29","","fixation","","",""
"1734","b_a montage/ba_168.jpg","78","image-keyboard-response","62","202401","0.0-3.0-1.29","","","Set_2_Only","r","false"
"null","<div style=""font-size:60px;"">+</div>","null","html-keyboard-response","63","202903","0.0-3.0-0.30","","fixation","","",""
"1643","a_b montage/ab_104.jpg","66","image-keyboard-response","64","204547","0.0-3.0-1.30","","","Update","b","true"
"null","<div style=""font-size:60px;"">+</div>","null","html-keyboard-response","65","205049","0.0-3.0-0.31","","fixation","","",""
"1061","a_b montage/ab_159.jpg","66","image-keyboard-response","66","206111","0.0-3.0-1.31","","","Update","b","true"
"null","<div style=""font-size:60px;"">+</div>","null","html-keyboard-response","67","206614","0.0-3.0-0.32","","fixation","","",""
"1207","a_b montage/ab_091.jpg","82","image-keyboard-response","68","207823","0.0-3.0-1.32","","","Repeat","l","false"
"null","<div style=""font-size:60px;"">+</div>","null","html-keyboard-response","69","208330","0.0-3.0-0.33","","fixation","","",""
"1514","a_b montage/ab_185.jpg","82","image-keyboard-response","70","209846","0.0-3.0-1.33","","","Set_2_Only","l","false"
"null","<div style=""font-size:60px;"">+</div>","null","html-keyboard-response","71","210349","0.0-3.0-0.34","","fixation","","",""
"1373","a_b montage/ab_107.jpg","66","image-keyboard-response","72","211724","0.0-3.0-1.34","","","Update","b","true"
"null","<div style=""font-size:60px;"">+</div>","null","html-keyboard-response","73","212225","0.0-3.0-0.35","","fixation","","",""
"1069","b_a montage/ba_163.jpg","66","image-keyboard-response","74","213295","0.0-3.0-1.35","","","Set_2_Only","r","false"
"null","<div style=""font-size:60px;"">+</div>","null","html-keyboard-response","75","213798","0.0-3.0-0.36","","fixation","","",""
"1390","a_b new/ab_011.jpg","66","image-keyboard-response","76","215189","0.0-3.0-1.36","","","Neither","n","false"
"null","<div style=""font-size:60px;"">+</div>","null","html-keyboard-response","77","215690","0.0-3.0-0.37","","fixation","","",""
"2457","a_b montage/ab_182.jpg","66","image-keyboard-response","78","218148","0.0-3.0-1.37","","","Set_2_Only","l","false"
"null","<div style=""font-size:60px;"">+</div>","null","html-keyboard-response","79","218650","0.0-3.0-0.38","","fixation","","",""
"1205","a_b montage/ab_188.jpg","78","image-keyboard-response","80","219856","0.0-3.0-1.38","","","Set_2_Only","l","false"
"null","<div style=""font-size:60px;"">+</div>","null","html-keyboard-response","81","220357","0.0-3.0-0.39","","fixation","","",""
"2013","a_b montage/ab_099.jpg","66","image-keyboard-response","82","222370","0.0-3.0-1.39","","","Update","b","true"
"null","<div style=""font-size:60px;"">+</div>","null","html-keyboard-response","83","222870","0.0-3.0-0.40","","fixation","","",""
"1939","a_b montage/ab_127.jpg","82","image-keyboard-response","84","224811","0.0-3.0-1.40","","","Update","b","false"
"null","<div style=""font-size:60px;"">+</div>","null","html-keyboard-response","85","225312","0.0-3.0-0.41","","fixation","","",""
"1260","b_a montage/ba_050.jpg","76","image-keyboard-response","86","226574","0.0-3.0-1.41","","","Repeat","r","false"
"null","<div style=""font-size:60px;"">+</div>","null","html-keyboard-response","87","227076","0.0-3.0-0.42","","fixation","","",""
"2248","a_b montage/ab_142.jpg","66","image-keyboard-response","88","229326","0.0-3.0-1.42","","","Update","b","true"
"null","<div style=""font-size:60px;"">+</div>","null","html-keyboard-response","89","229828","0.0-3.0-0.43","","fixation","","",""
"1466","b_a montage/ba_056.jpg","66","image-keyboard-response","90","231295","0.0-3.0-1.43","","","Repeat","r","false"
"null","<div style=""font-size:60px;"">+</div>","null","html-keyboard-response","91","231797","0.0-3.0-0.44","","fixation","","",""
"1933","a_b montage/ab_150.jpg","66","image-keyboard-response","92","233732","0.0-3.0-1.44","","","Update","b","true"
"null","<div style=""font-size:60px;"">+</div>","null","html-keyboard-response","93","234233","0.0-3.0-0.45","","fixation","","",""
"2474","a_b montage/ab_020.jpg","82","image-keyboard-response","94","236707","0.0-3.0-1.45","","","Set_1_Only","l","false"
"null","<div style=""font-size:60px;"">+</div>","null","html-keyboard-response","95","237210","0.0-3.0-0.46","","fixation","","",""
"1345","a_b montage/ab_139.jpg","66","image-keyboard-response","96","238556","0.0-3.0-1.46","","","Update","b","true"
"null","<div style=""font-size:60px;"">+</div>","null","html-keyboard-response","97","239058","0.0-3.0-0.47","","fixation","","",""
"1538","a_b montage/ab_149.jpg","82","image-keyboard-response","98","240596","0.0-3.0-1.47","","","Update","b","false"
"null","<div style=""font-size:60px;"">+</div>","null","html-keyboard-response","99","241097","0.0-3.0-0.48","","fixation","","",""
"1653","a_b new/ab_003.jpg","78","image-keyboard-response","100","242751","0.0-3.0-1.48","","","Neither","n","true"
"null","<div style=""font-size:60px;"">+</div>","null","html-keyboard-response","101","243253","0.0-3.0-0.49","","fixation","","",""
"1314","a_b montage/ab_098.jpg","76","image-keyboard-response","102","244568","0.0-3.0-1.49","","","Update","b","false"
"null","<div style=""font-size:60px;"">+</div>","null","html-keyboard-response","103","245071","0.0-3.0-0.50","","fixation","","",""
"1851","a_b montage/ab_084.jpg","66","image-keyboard-response","104","246925","0.0-3.0-1.50","","","Repeat","l","false"
"null","<div style=""font-size:60px;"">+</div>","null","html-keyboard-response","105","247427","0.0-3.0-0.51","","fixation","","",""
"1106","a_b montage/ab_177.jpg","82","image-keyboard-response","106","248535","0.0-3.0-1.51","","","Set_2_Only","l","false"
"null","<div style=""font-size:60px;"">+</div>","null","html-keyboard-response","107","249037","0.0-3.0-0.52","","fixation","","",""
"1261","a_b montage/ab_111.jpg","66","image-keyboard-response","108","250300","0.0-3.0-1.52","","","Update","b","true"
"null","<div style=""font-size:60px;"">+</div>","null","html-keyboard-response","109","250801","0.0-3.0-0.53","","fixation","","",""
"1833","a_b montage/ab_090.jpg","78","image-keyboard-response","110","252635","0.0-3.0-1.53","","","Repeat","l","false"
"null","<div style=""font-size:60px;"">+</div>","null","html-keyboard-response","111","253137","0.0-3.0-0.54","","fixation","","",""
"1986","b_a montage/ba_012.jpg","66","image-keyboard-response","112","255124","0.0-3.0-1.54","","","Set_1_Only","r","false"
"null","<div style=""font-size:60px;"">+</div>","null","html-keyboard-response","113","255626","0.0-3.0-0.55","","fixation","","",""
"1083","b_a montage/ba_039.jpg","76","image-keyboard-response","114","256714","0.0-3.0-1.55","","","Repeat","r","false"
"null","<div style=""font-size:60px;"">+</div>","null","html-keyboard-response","115","257215","0.0-3.0-0.56","","fixation","","",""
"1005","a_b montage/ab_125.jpg","66","image-keyboard-response","116","258221","0.0-3.0-1.56","","","Update","b","true"
"null","<div style=""font-size:60px;"">+</div>","null","html-keyboard-response","117","258723","0.0-3.0-0.57","","fixation","","",""
"1531","b_a montage/ba_172.jpg","82","image-keyboard-response","118","260256","0.0-3.0-1.57","","","Set_2_Only","r","true"
"null","<div style=""font-size:60px;"">+</div>","null","html-keyboard-response","119","260759","0.0-3.0-0.58","","fixation","","",""
"1530","b_a montage/ba_046.jpg","66","image-keyboard-response","120","262290","0.0-3.0-1.58","","","Repeat","r","false"
"null","<div style=""font-size:60px;"">+</div>","null","html-keyboard-response","121","262793","0.0-3.0-0.59","","fixation","","",""
"1501","b_a montage/ba_004.jpg","76","image-keyboard-response","122","264295","0.0-3.0-1.59","","","Set_1_Only","r","false"
"null","<div style=""font-size:60px;"">+</div>","null","html-keyboard-response","123","264797","0.0-3.0-0.60","","fixation","","",""
"1190","b_a montage/ba_062.jpg","76","image-keyboard-response","124","265988","0.0-3.0-1.60","","","Repeat","r","false"
"null","<div style=""font-size:60px;"">+</div>","null","html-keyboard-response","125","266489","0.0-3.0-0.61","","fixation","","",""
"1382","b_a montage/ba_166.jpg","76","image-keyboard-response","126","267872","0.0-3.0-1.61","","","Set_2_Only","r","false"
"null","<div style=""font-size:60px;"">+</div>","null","html-keyboard-response","127","268375","0.0-3.0-0.62","","fixation","","",""
"1086","a_b montage/ab_148.jpg","76","image-keyboard-response","128","269462","0.0-3.0-1.62","","","Update","b","false"
"null","<div style=""font-size:60px;"">+</div>","null","html-keyboard-response","129","269964","0.0-3.0-0.63","","fixation","","",""
"1546","a_b montage/ab_108.jpg","82","image-keyboard-response","130","271511","0.0-3.0-1.63","","","Update","b","false"
"null","<div style=""font-size:60px;"">+</div>","null","html-keyboard-response","131","272013","0.0-3.0-0.64","","fixation","","",""
"1545","a_b new/ab_010.jpg","78","image-keyboard-response","132","273561","0.0-3.0-1.64","","","Neither","n","true"
"null","<div style=""font-size:60px;"">+</div>","null","html-keyboard-response","133","274064","0.0-3.0-0.65","","fixation","","",""
"1664","b_a montage/ba_011.jpg","76","image-keyboard-response","134","275729","0.0-3.0-1.65","","","Set_1_Only","r","false"
"null","<div style=""font-size:60px;"">+</div>","null","html-keyboard-response","135","276231","0.0-3.0-0.66","","fixation","","",""
"1343","a_b montage/ab_180.jpg","76","image-keyboard-response","136","277575","0.0-3.0-1.66","","","Set_2_Only","l","true"
"null","<div style=""font-size:60px;"">+</div>","null","html-keyboard-response","137","278078","0.0-3.0-0.67","","fixation","","",""
"2439","b_a montage/ba_015.jpg","66","image-keyboard-response","138","280518","0.0-3.0-1.67","","","Set_1_Only","r","false"
"null","<div style=""font-size:60px;"">+</div>","null","html-keyboard-response","139","281020","0.0-3.0-0.68","","fixation","","",""
"1369","b_a montage/ba_058.jpg","78","image-keyboard-response","140","282390","0.0-3.0-1.68","","","Repeat","r","false"
"null","<div style=""font-size:60px;"">+</div>","null","html-keyboard-response","141","282892","0.0-3.0-0.69","","fixation","","",""
"1431","a_b montage/ab_154.jpg","82","image-keyboard-response","142","284324","0.0-3.0-1.69","","","Update","b","false"
"null","<div style=""font-size:60px;"">+</div>","null","html-keyboard-response","143","284825","0.0-3.0-0.70","","fixation","","",""
"1086","a_b montage/ab_112.jpg","76","image-keyboard-response","144","285912","0.0-3.0-1.70","","","Update","b","false"
"null","<div style=""font-size:60px;"">+</div>","null","html-keyboard-response","145","286415","0.0-3.0-0.71","","fixation","","",""
"1121","a_b montage/ab_183.jpg","78","image-keyboard-response","146","287537","0.0-3.0-1.71","","","Set_2_Only","l","false"
"null","<div style=""font-size:60px;"">+</div>","null","html-keyboard-response","147","288039","0.0-3.0-0.72","","fixation","","",""
"989","a_b montage/ab_192.jpg","78","image-keyboard-response","148","289029","0.0-3.0-1.72","","","Set_2_Only","l","false"
"null","<div style=""font-size:60px;"">+</div>","null","html-keyboard-response","149","289531","0.0-3.0-0.73","","fixation","","",""
"1085","a_b montage/ab_113.jpg","78","image-keyboard-response","150","290617","0.0-3.0-1.73","","","Update","b","false"
"null","<div style=""font-size:60px;"">+</div>","null","html-keyboard-response","151","291119","0.0-3.0-0.74","","fixation","","",""
"1500","b_a montage/ba_037.jpg","66","image-keyboard-response","152","292620","0.0-3.0-1.74","","","Repeat","r","false"
"null","<div style=""font-size:60px;"">+</div>","null","html-keyboard-response","153","293122","0.0-3.0-0.75","","fixation","","",""
"2388","a_b montage/ab_019.jpg","76","image-keyboard-response","154","295512","0.0-3.0-1.75","","","Set_1_Only","l","true"
"null","<div style=""font-size:60px;"">+</div>","null","html-keyboard-response","155","296013","0.0-3.0-0.76","","fixation","","",""
"1920","a_b montage/ab_018.jpg","76","image-keyboard-response","156","297935","0.0-3.0-1.76","","","Set_1_Only","l","true"
"null","<div style=""font-size:60px;"">+</div>","null","html-keyboard-response","157","298438","0.0-3.0-0.77","","fixation","","",""
"1196","a_b montage/ab_085.jpg","82","image-keyboard-response","158","299635","0.0-3.0-1.77","","","Repeat","l","false"
"null","<div style=""font-size:60px;"">+</div>","null","html-keyboard-response","159","300137","0.0-3.0-0.78","","fixation","","",""
"2447","b_a montage/ba_034.jpg","76","image-keyboard-response","160","302585","0.0-3.0-1.78","","","Repeat","r","false"
"null","<div style=""font-size:60px;"">+</div>","null","html-keyboard-response","161","303087","0.0-3.0-0.79","","fixation","","",""
"1555","a_b montage/ab_117.jpg","78","image-keyboard-response","162","304643","0.0-3.0-1.79","","","Update","b","false"
"null","<div style=""font-size:60px;"">+</div>","null","html-keyboard-response","163","305145","0.0-3.0-0.80","","fixation","","",""
"1551","a_b montage/ab_082.jpg","66","image-keyboard-response","164","306697","0.0-3.0-1.80","","","Repeat","l","false"
"null","<div style=""font-size:60px;"">+</div>","null","html-keyboard-response","165","307200","0.0-3.0-0.81","","fixation","","",""
"1478","a_b montage/ab_092.jpg","66","image-keyboard-response","166","308680","0.0-3.0-1.81","","","Repeat","l","false"
"null","<div style=""font-size:60px;"">+</div>","null","html-keyboard-response","167","309182","0.0-3.0-0.82","","fixation","","",""
"2951","b_a montage/ba_060.jpg","82","image-keyboard-response","168","312135","0.0-3.0-1.82","","","Repeat","r","true"
"null","<div style=""font-size:60px;"">+</div>","null","html-keyboard-response","169","312638","0.0-3.0-0.83","","fixation","","",""
"1539","b_a montage/ba_061.jpg","66","image-keyboard-response","170","314181","0.0-3.0-1.83","","","Repeat","r","false"
"null","<div style=""font-size:60px;"">+</div>","null","html-keyboard-response","171","314683","0.0-3.0-0.84","","fixation","","",""
"2448","a_b montage/ab_158.jpg","78","image-keyboard-response","172","317134","0.0-3.0-1.84","","","Update","b","false"
"null","<div style=""font-size:60px;"">+</div>","null","html-keyboard-response","173","317637","0.0-3.0-0.85","","fixation","","",""
"1971","a_b montage/ab_075.jpg","82","image-keyboard-response","174","319611","0.0-3.0-1.85","","","Repeat","l","false"
"null","<div style=""font-size:60px;"">+</div>","null","html-keyboard-response","175","320113","0.0-3.0-0.86","","fixation","","",""
"1399","a_b montage/ab_086.jpg","78","image-keyboard-response","176","321513","0.0-3.0-1.86","","","Repeat","l","false"
"null","<div style=""font-size:60px;"">+</div>","null","html-keyboard-response","177","322015","0.0-3.0-0.87","","fixation","","",""
"1041","a_b montage/ab_190.jpg","82","image-keyboard-response","178","323058","0.0-3.0-1.87","","","Set_2_Only","l","false"
"null","<div style=""font-size:60px;"">+</div>","null","html-keyboard-response","179","323559","0.0-3.0-0.88","","fixation","","",""
"969","b_a montage/ba_055.jpg","66","image-keyboard-response","180","324530","0.0-3.0-1.88","","","Repeat","r","false"
"null","<div style=""font-size:60px;"">+</div>","null","html-keyboard-response","181","325032","0.0-3.0-0.89","","fixation","","",""
"1056","a_b montage/ab_135.jpg","66","image-keyboard-response","182","326089","0.0-3.0-1.89","","","Update","b","true"
"null","<div style=""font-size:60px;"">+</div>","null","html-keyboard-response","183","326592","0.0-3.0-0.90","","fixation","","",""
"2852","a_b montage/ab_137.jpg","82","image-keyboard-response","184","329445","0.0-3.0-1.90","","","Update","b","false"
"null","<div style=""font-size:60px;"">+</div>","null","html-keyboard-response","185","329947","0.0-3.0-0.91","","fixation","","",""
"2430","b_a montage/ba_006.jpg","66","image-keyboard-response","186","332380","0.0-3.0-1.91","","","Set_1_Only","r","false"
"null","<div style=""font-size:60px;"">+</div>","null","html-keyboard-response","187","332882","0.0-3.0-0.92","","fixation","","",""
"1393","b_a montage/ba_170.jpg","76","image-keyboard-response","188","334277","0.0-3.0-1.92","","","Set_2_Only","r","false"
"null","<div style=""font-size:60px;"">+</div>","null","html-keyboard-response","189","334779","0.0-3.0-0.93","","fixation","","",""
"1052","b_a montage/ba_051.jpg","76","image-keyboard-response","190","335832","0.0-3.0-1.93","","","Repeat","r","false"
"null","<div style=""font-size:60px;"">+</div>","null","html-keyboard-response","191","336334","0.0-3.0-0.94","","fixation","","",""
"2820","a_b montage/ab_128.jpg","66","image-keyboard-response","192","339155","0.0-3.0-1.94","","","Update","b","true"
"null","<div style=""font-size:60px;"">+</div>","null","html-keyboard-response","193","339656","0.0-3.0-0.95","","fixation","","",""
"1045","a_b montage/ab_145.jpg","78","image-keyboard-response","194","340703","0.0-3.0-1.95","","","Update","b","false"
"null","<div style=""font-size:60px;"">+</div>","null","html-keyboard-response","195","341206","0.0-3.0-0.96","","fixation","","",""
"1319","a_b montage/ab_031.jpg","78","image-keyboard-response","196","342527","0.0-3.0-1.96","","","Set_1_Only","l","false"
"null","<div style=""font-size:60px;"">+</div>","null","html-keyboard-response","197","343028","0.0-3.0-0.97","","fixation","","",""
"2000","a_b montage/ab_071.jpg","66","image-keyboard-response","198","345030","0.0-3.0-1.97","","","Repeat","l","false"
"null","<div style=""font-size:60px;"">+</div>","null","html-keyboard-response","199","345532","0.0-3.0-0.98","","fixation","","",""
"2196","b_a montage/ba_120.jpg","66","image-keyboard-response","200","347730","0.0-3.0-1.98","","","Update","b","true"
"null","<div style=""font-size:60px;"">+</div>","null","html-keyboard-response","201","348232","0.0-3.0-0.99","","fixation","","",""
"2198","b_a montage/ba_143.jpg","82","image-keyboard-response","202","350432","0.0-3.0-1.99","","","Update","b","false"
"null","<div style=""font-size:60px;"">+</div>","null","html-keyboard-response","203","350934","0.0-3.0-0.100","","fixation","","",""
"1498","b_a montage/ba_146.jpg","76","image-keyboard-response","204","352433","0.0-3.0-1.100","","","Update","b","false"
"null","<div style=""font-size:60px;"">+</div>","null","html-keyboard-response","205","352935","0.0-3.0-0.101","","fixation","","",""
"1869","a_b new/ab_015.jpg","78","image-keyboard-response","206","354805","0.0-3.0-1.101","","","Neither","n","true"
"null","<div style=""font-size:60px;"">+</div>","null","html-keyboard-response","207","355307","0.0-3.0-0.102","","fixation","","",""
"1794","b_a montage/ba_097.jpg","82","image-keyboard-response","208","357102","0.0-3.0-1.102","","","Update","b","false"
"null","<div style=""font-size:60px;"">+</div>","null","html-keyboard-response","209","357604","0.0-3.0-0.103","","fixation","","",""
"1225","b_a montage/ba_036.jpg","76","image-keyboard-response","210","358831","0.0-3.0-1.103","","","Repeat","r","false"
"null","<div style=""font-size:60px;"">+</div>","null","html-keyboard-response","211","359333","0.0-3.0-0.104","","fixation","","",""
"2843","b_a montage/ba_136.jpg","66","image-keyboard-response","212","362177","0.0-3.0-1.104","","","Update","b","true"
"null","<div style=""font-size:60px;"">+</div>","null","html-keyboard-response","213","362679","0.0-3.0-0.105","","fixation","","",""
"822","a_b montage/ab_073.jpg","66","image-keyboard-response","214","363504","0.0-3.0-1.105","","","Repeat","l","false"
"null","<div style=""font-size:60px;"">+</div>","null","html-keyboard-response","215","364007","0.0-3.0-0.106","","fixation","","",""
"818","b_a montage/ba_133.jpg","66","image-keyboard-response","216","364827","0.0-3.0-1.106","","","Update","b","true"
"null","<div style=""font-size:60px;"">+</div>","null","html-keyboard-response","217","365329","0.0-3.0-0.107","","fixation","","",""
"1709","b_a montage/ba_045.jpg","66","image-keyboard-response","218","367040","0.0-3.0-1.107","","","Repeat","r","false"
"null","<div style=""font-size:60px;"">+</div>","null","html-keyboard-response","219","367543","0.0-3.0-0.108","","fixation","","",""
"1097","a_b montage/ab_081.jpg","66","image-keyboard-response","220","368642","0.0-3.0-1.108","","","Repeat","l","false"
"null","<div style=""font-size:60px;"">+</div>","null","html-keyboard-response","221","369145","0.0-3.0-0.109","","fixation","","",""
"1075","a_b montage/ab_089.jpg","82","image-keyboard-response","222","370222","0.0-3.0-1.109","","","Repeat","l","false"
"null","<div style=""font-size:60px;"">+</div>","null","html-keyboard-response","223","370723","0.0-3.0-0.110","","fixation","","",""
"1693","a_b new/ab_005.jpg","76","image-keyboard-response","224","372417","0.0-3.0-1.110","","","Neither","n","false"
"null","<div style=""font-size:60px;"">+</div>","null","html-keyboard-response","225","372918","0.0-3.0-0.111","","fixation","","",""
"1733","b_a montage/ba_053.jpg","78","image-keyboard-response","226","374651","0.0-3.0-1.111","","","Repeat","r","false"
"null","<div style=""font-size:60px;"">+</div>","null","html-keyboard-response","227","375153","0.0-3.0-0.112","","fixation","","",""
"1555","b_a montage/ba_119.jpg","82","image-keyboard-response","228","376710","0.0-3.0-1.112","","","Update","b","false"
"null","<div style=""font-size:60px;"">+</div>","null","html-keyboard-response","229","377211","0.0-3.0-0.113","","fixation","","",""
"2141","b_a montage/ba_171.jpg","78","image-keyboard-response","230","379353","0.0-3.0-1.113","","","Set_2_Only","r","false"
"null","<div style=""font-size:60px;"">+</div>","null","html-keyboard-response","231","379856","0.0-3.0-0.114","","fixation","","",""
"2846","b_a montage/ba_110.jpg","76","image-keyboard-response","232","382705","0.0-3.0-1.114","","","Update","b","false"
"null","<div style=""font-size:60px;"">+</div>","null","html-keyboard-response","233","383207","0.0-3.0-0.115","","fixation","","",""
"1145","b_a montage/ba_116.jpg","66","image-keyboard-response","234","384353","0.0-3.0-1.115","","","Update","b","true"
"null","<div style=""font-size:60px;"">+</div>","null","html-keyboard-response","235","384856","0.0-3.0-0.116","","fixation","","",""
"1658","a_b montage/ab_024.jpg","76","image-keyboard-response","236","386516","0.0-3.0-1.116","","","Set_1_Only","l","true"
"null","<div style=""font-size:60px;"">+</div>","null","html-keyboard-response","237","387017","0.0-3.0-0.117","","fixation","","",""
"1017","a_b montage/ab_026.jpg","82","image-keyboard-response","238","388036","0.0-3.0-1.117","","","Set_1_Only","l","false"
"null","<div style=""font-size:60px;"">+</div>","null","html-keyboard-response","239","388537","0.0-3.0-0.118","","fixation","","",""
"1012","b_a montage/ba_052.jpg","76","image-keyboard-response","240","389551","0.0-3.0-1.118","","","Repeat","r","false"
"null","<div style=""font-size:60px;"">+</div>","null","html-keyboard-response","241","390053","0.0-3.0-0.119","","fixation","","",""
"1223","a_b montage/ab_094.jpg","82","image-keyboard-response","242","391278","0.0-3.0-1.119","","","Repeat","l","false"
"null","<div style=""font-size:60px;"">+</div>","null","html-keyboard-response","243","391780","0.0-3.0-0.120","","fixation","","",""
"1247","b_a montage/ba_101.jpg","66","image-keyboard-response","244","393028","0.0-3.0-1.120","","","Update","b","true"
"null","<div style=""font-size:60px;"">+</div>","null","html-keyboard-response","245","393530","0.0-3.0-0.121","","fixation","","",""
"2591","b_a montage/ba_152.jpg","76","image-keyboard-response","246","396122","0.0-3.0-1.121","","","Update","b","false"
"null","<div style=""font-size:60px;"">+</div>","null","html-keyboard-response","247","396624","0.0-3.0-0.122","","fixation","","",""
"1283","a_b montage/ab_093.jpg","82","image-keyboard-response","248","397907","0.0-3.0-1.122","","","Repeat","l","false"
"null","<div style=""font-size:60px;"">+</div>","null","html-keyboard-response","249","398409","0.0-3.0-0.123","","fixation","","",""
"2302","a_b new/ab_007.jpg","66","image-keyboard-response","250","400712","0.0-3.0-1.123","","","Neither","n","false"
"null","<div style=""font-size:60px;"">+</div>","null","html-keyboard-response","251","401214","0.0-3.0-0.124","","fixation","","",""
"1592","b_a montage/ba_102.jpg","66","image-keyboard-response","252","402808","0.0-3.0-1.124","","","Update","b","true"
"null","<div style=""font-size:60px;"">+</div>","null","html-keyboard-response","253","403309","0.0-3.0-0.125","","fixation","","",""
"1397","a_b montage/ab_021.jpg","82","image-keyboard-response","254","404707","0.0-3.0-1.125","","","Set_1_Only","l","false"
"null","<div style=""font-size:60px;"">+</div>","null","html-keyboard-response","255","405209","0.0-3.0-0.126","","fixation","","",""
"1375","a_b montage/ab_065.jpg","82","image-keyboard-response","256","406586","0.0-3.0-1.126","","","Repeat","l","false"
"null","<div style=""font-size:60px;"">+</div>","null","html-keyboard-response","257","407088","0.0-3.0-0.127","","fixation","","",""
"640","a_b new/ab_002.jpg","76","image-keyboard-response","258","407729","0.0-3.0-1.127","","","Neither","n","false"
"null","<div style=""font-size:60px;"">+</div>","null","html-keyboard-response","259","408232","0.0-3.0-0.128","","fixation","","",""
"1956","b_a montage/ba_057.jpg","78","image-keyboard-response","260","410190","0.0-3.0-1.128","","","Repeat","r","false"
"null","<div style=""font-size:60px;"">+</div>","null","html-keyboard-response","261","410694","0.0-3.0-0.129","","fixation","","",""
"1191","b_a montage/ba_167.jpg","78","image-keyboard-response","262","411887","0.0-3.0-1.129","","","Set_2_Only","r","false"
"null","<div style=""font-size:60px;"">+</div>","null","html-keyboard-response","263","412388","0.0-3.0-0.130","","fixation","","",""
"1713","b_a montage/ba_160.jpg","78","image-keyboard-response","264","414104","0.0-3.0-1.130","","","Update","b","false"
"null","<div style=""font-size:60px;"">+</div>","null","html-keyboard-response","265","414605","0.0-3.0-0.131","","fixation","","",""
"1458","b_a montage/ba_005.jpg","76","image-keyboard-response","266","416065","0.0-3.0-1.131","","","Set_1_Only","r","false"
"null","<div style=""font-size:60px;"">+</div>","null","html-keyboard-response","267","416567","0.0-3.0-0.132","","fixation","","",""
"961","b_a montage/ba_140.jpg","78","image-keyboard-response","268","417528","0.0-3.0-1.132","","","Update","b","false"
"null","<div style=""font-size:60px;"">+</div>","null","html-keyboard-response","269","418029","0.0-3.0-0.133","","fixation","","",""
"1924","b_a new/ba_006.jpg","78","image-keyboard-response","270","419954","0.0-3.0-1.133","","","Neither","n","true"
"null","<div style=""font-size:60px;"">+</div>","null","html-keyboard-response","271","420456","0.0-3.0-0.134","","fixation","","",""
"1535","b_a montage/ba_123.jpg","66","image-keyboard-response","272","421993","0.0-3.0-1.134","","","Update","b","true"
"null","<div style=""font-size:60px;"">+</div>","null","html-keyboard-response","273","422496","0.0-3.0-0.135","","fixation","","",""
"1571","b_a montage/ba_033.jpg","76","image-keyboard-response","274","424068","0.0-3.0-1.135","","","Repeat","r","false"
"null","<div style=""font-size:60px;"">+</div>","null","html-keyboard-response","275","424570","0.0-3.0-0.136","","fixation","","",""
"1715","a_b montage/ab_077.jpg","78","image-keyboard-response","276","426286","0.0-3.0-1.136","","","Repeat","l","false"
"null","<div style=""font-size:60px;"">+</div>","null","html-keyboard-response","277","426788","0.0-3.0-0.137","","fixation","","",""
"1830","a_b montage/ab_032.jpg","82","image-keyboard-response","278","428619","0.0-3.0-1.137","","","Set_1_Only","l","false"
"null","<div style=""font-size:60px;"">+</div>","null","html-keyboard-response","279","429121","0.0-3.0-0.138","","fixation","","",""
"1295","b_a montage/ba_156.jpg","76","image-keyboard-response","280","430417","0.0-3.0-1.138","","","Update","b","false"
"null","<div style=""font-size:60px;"">+</div>","null","html-keyboard-response","281","430920","0.0-3.0-0.139","","fixation","","",""
"1928","a_b montage/ab_022.jpg","78","image-keyboard-response","282","432850","0.0-3.0-1.139","","","Set_1_Only","l","false"
"null","<div style=""font-size:60px;"">+</div>","null","html-keyboard-response","283","433353","0.0-3.0-0.140","","fixation","","",""
"1439","b_a montage/ba_114.jpg","76","image-keyboard-response","284","434794","0.0-3.0-1.140","","","Update","b","false"
"null","<div style=""font-size:60px;"">+</div>","null","html-keyboard-response","285","435297","0.0-3.0-0.141","","fixation","","",""
"2140","b_a new/ba_013.jpg","78","image-keyboard-response","286","437439","0.0-3.0-1.141","","","Neither","n","true"
"null","<div style=""font-size:60px;"">+</div>","null","html-keyboard-response","287","437940","0.0-3.0-0.142","","fixation","","",""
"2333","a_b montage/ab_023.jpg","82","image-keyboard-response","288","440276","0.0-3.0-1.142","","","Set_1_Only","l","false"
"null","<div style=""font-size:60px;"">+</div>","null","html-keyboard-response","289","440778","0.0-3.0-0.143","","fixation","","",""
"2194","a_b montage/ab_087.jpg","82","image-keyboard-response","290","442973","0.0-3.0-1.143","","","Repeat","l","false"
"null","<div style=""font-size:60px;"">+</div>","null","html-keyboard-response","291","443474","0.0-3.0-0.144","","fixation","","",""
"2506","b_a montage/ba_155.jpg","76","image-keyboard-response","292","445982","0.0-3.0-1.144","","","Update","b","false"
"null","<div style=""font-size:60px;"">+</div>","null","html-keyboard-response","293","446485","0.0-3.0-0.145","","fixation","","",""
"2982","b_a montage/ba_002.jpg","76","image-keyboard-response","294","449470","0.0-3.0-1.145","","","Set_1_Only","r","false"
"null","<div style=""font-size:60px;"">+</div>","null","html-keyboard-response","295","449972","0.0-3.0-0.146","","fixation","","",""
"1023","b_a montage/ba_161.jpg","76","image-keyboard-response","296","450997","0.0-3.0-1.146","","","Set_2_Only","r","false"
"null","<div style=""font-size:60px;"">+</div>","null","html-keyboard-response","297","451498","0.0-3.0-0.147","","fixation","","",""
"1222","a_b montage/ab_029.jpg","78","image-keyboard-response","298","452722","0.0-3.0-1.147","","","Set_1_Only","l","false"
"null","<div style=""font-size:60px;"">+</div>","null","html-keyboard-response","299","453227","0.0-3.0-0.148","","fixation","","",""
"1229","a_b montage/ab_030.jpg","82","image-keyboard-response","300","454458","0.0-3.0-1.148","","","Set_1_Only","l","false"
"null","<div style=""font-size:60px;"">+</div>","null","html-keyboard-response","301","454960","0.0-3.0-0.149","","fixation","","",""
"2127","b_a new/ba_004.jpg","78","image-keyboard-response","302","457088","0.0-3.0-1.149","","","Neither","n","true"
"null","<div style=""font-size:60px;"">+</div>","null","html-keyboard-response","303","457590","0.0-3.0-0.150","","fixation","","",""
"1542","b_a montage/ba_049.jpg","76","image-keyboard-response","304","459134","0.0-3.0-1.150","","","Repeat","r","false"
"null","<div style=""font-size:60px;"">+</div>","null","html-keyboard-response","305","459636","0.0-3.0-0.151","","fixation","","",""
"2708","a_b montage/ab_027.jpg","76","image-keyboard-response","306","462345","0.0-3.0-1.151","","","Set_1_Only","l","true"
"null","<div style=""font-size:60px;"">+</div>","null","html-keyboard-response","307","462846","0.0-3.0-0.152","","fixation","","",""
"1720","b_a montage/ba_008.jpg","76","image-keyboard-response","308","464568","0.0-3.0-1.152","","","Set_1_Only","r","false"
"null","<div style=""font-size:60px;"">+</div>","null","html-keyboard-response","309","465070","0.0-3.0-0.153","","fixation","","",""
"2171","b_a montage/ba_048.jpg","78","image-keyboard-response","310","467242","0.0-3.0-1.153","","","Repeat","r","false"
"null","<div style=""font-size:60px;"">+</div>","null","html-keyboard-response","311","467745","0.0-3.0-0.154","","fixation","","",""
"1270","a_b montage/ab_191.jpg","76","image-keyboard-response","312","469017","0.0-3.0-1.154","","","Set_2_Only","l","true"
"null","<div style=""font-size:60px;"">+</div>","null","html-keyboard-response","313","469520","0.0-3.0-0.155","","fixation","","",""
"1011","a_b montage/ab_186.jpg","82","image-keyboard-response","314","470532","0.0-3.0-1.155","","","Set_2_Only","l","false"
"null","<div style=""font-size:60px;"">+</div>","null","html-keyboard-response","315","471034","0.0-3.0-0.156","","fixation","","",""
"1997","b_a montage/ba_157.jpg","82","image-keyboard-response","316","473032","0.0-3.0-1.156","","","Update","b","false"
"null","<div style=""font-size:60px;"">+</div>","null","html-keyboard-response","317","473535","0.0-3.0-0.157","","fixation","","",""
"2138","a_b montage/ab_072.jpg","76","image-keyboard-response","318","475674","0.0-3.0-1.157","","","Repeat","l","true"
"null","<div style=""font-size:60px;"">+</div>","null","html-keyboard-response","319","476176","0.0-3.0-0.158","","fixation","","",""
"1964","b_a montage/ba_173.jpg","82","image-keyboard-response","320","478142","0.0-3.0-1.158","","","Set_2_Only","r","true"
"null","<div style=""font-size:60px;"">+</div>","null","html-keyboard-response","321","478643","0.0-3.0-0.159","","fixation","","",""
"1595","a_b montage/ab_187.jpg","78","image-keyboard-response","322","480239","0.0-3.0-1.159","","","Set_2_Only","l","false"
"null","<div style=""font-size:60px;"">+</div>","null","html-keyboard-response","323","480741","0.0-3.0-0.160","","fixation","","",""
"876","b_a montage/ba_016.jpg","78","image-keyboard-response","324","481617","0.0-3.0-1.160","","","Set_1_Only","r","false"
"null","<div style=""font-size:60px;"">+</div>","null","html-keyboard-response","325","482118","0.0-3.0-0.161","","fixation","","",""
"1062","a_b montage/ab_095.jpg","82","image-keyboard-response","326","483183","0.0-3.0-1.161","","","Repeat","l","false"
"null","<div style=""font-size:60px;"">+</div>","null","html-keyboard-response","327","483685","0.0-3.0-0.162","","fixation","","",""
"3193","a_b montage/ab_178.jpg","82","image-keyboard-response","328","486879","0.0-3.0-1.162","","","Set_2_Only","l","false"
"null","<div style=""font-size:60px;"">+</div>","null","html-keyboard-response","329","487382","0.0-3.0-0.163","","fixation","","",""
"1109","b_a new/ba_014.jpg","78","image-keyboard-response","330","488493","0.0-3.0-1.163","","","Neither","n","true"
"null","<div style=""font-size:60px;"">+</div>","null","html-keyboard-response","331","488995","0.0-3.0-0.164","","fixation","","",""
"1902","b_a montage/ba_126.jpg","78","image-keyboard-response","332","490898","0.0-3.0-1.164","","","Update","b","false"
"null","<div style=""font-size:60px;"">+</div>","null","html-keyboard-response","333","491400","0.0-3.0-0.165","","fixation","","",""
"1157","b_a montage/ba_134.jpg","82","image-keyboard-response","334","492559","0.0-3.0-1.165","","","Update","b","false"
"null","<div style=""font-size:60px;"">+</div>","null","html-keyboard-response","335","493061","0.0-3.0-0.166","","fixation","","",""
"1215","b_a montage/ba_162.jpg","82","image-keyboard-response","336","494279","0.0-3.0-1.166","","","Set_2_Only","r","true"
"null","<div style=""font-size:60px;"">+</div>","null","html-keyboard-response","337","494781","0.0-3.0-0.167","","fixation","","",""
"2530","b_a montage/ba_003.jpg","82","image-keyboard-response","338","497313","0.0-3.0-1.167","","","Set_1_Only","r","true"
"null","<div style=""font-size:60px;"">+</div>","null","html-keyboard-response","339","497814","0.0-3.0-0.168","","fixation","","",""
"918","b_a montage/ba_007.jpg","78","image-keyboard-response","340","498734","0.0-3.0-1.168","","","Set_1_Only","r","false"
"null","<div style=""font-size:60px;"">+</div>","null","html-keyboard-response","341","499236","0.0-3.0-0.169","","fixation","","",""
"1300","b_a montage/ba_063.jpg","76","image-keyboard-response","342","500537","0.0-3.0-1.169","","","Repeat","r","false"
"null","<div style=""font-size:60px;"">+</div>","null","html-keyboard-response","343","501039","0.0-3.0-0.170","","fixation","","",""
"2744","b_a montage/ba_132.jpg","82","image-keyboard-response","344","503784","0.0-3.0-1.170","","","Update","b","false"
"null","<div style=""font-size:60px;"">+</div>","null","html-keyboard-response","345","504287","0.0-3.0-0.171","","fixation","","",""
"1391","a_b montage/ab_096.jpg","82","image-keyboard-response","346","505680","0.0-3.0-1.171","","","Repeat","l","false"
"null","<div style=""font-size:60px;"">+</div>","null","html-keyboard-response","347","506181","0.0-3.0-0.172","","fixation","","",""
"1840","b_a montage/ba_014.jpg","66","image-keyboard-response","348","508021","0.0-3.0-1.172","","","Set_1_Only","r","false"
"null","<div style=""font-size:60px;"">+</div>","null","html-keyboard-response","349","508523","0.0-3.0-0.173","","fixation","","",""
"987","b_a montage/ba_105.jpg","66","image-keyboard-response","350","509512","0.0-3.0-1.173","","","Update","b","true"
"null","<div style=""font-size:60px;"">+</div>","null","html-keyboard-response","351","510014","0.0-3.0-0.174","","fixation","","",""
"2452","b_a montage/ba_054.jpg","76","image-keyboard-response","352","512466","0.0-3.0-1.174","","","Repeat","r","false"
"null","<div style=""font-size:60px;"">+</div>","null","html-keyboard-response","353","512969","0.0-3.0-0.175","","fixation","","",""
"2387","b_a montage/ba_042.jpg","76","image-keyboard-response","354","515357","0.0-3.0-1.175","","","Repeat","r","false"
"null","<div style=""font-size:60px;"">+</div>","null","html-keyboard-response","355","515859","0.0-3.0-0.176","","fixation","","",""
"1838","a_b montage/ab_074.jpg","82","image-keyboard-response","356","517699","0.0-3.0-1.176","","","Repeat","l","false"
"null","<div style=""font-size:60px;"">+</div>","null","html-keyboard-response","357","518202","0.0-3.0-0.177","","fixation","","",""
"1493","a_b montage/ab_083.jpg","76","image-keyboard-response","358","519695","0.0-3.0-1.177","","","Repeat","l","true"
"null","<div style=""font-size:60px;"">+</div>","null","html-keyboard-response","359","520197","0.0-3.0-0.178","","fixation","","",""
"2465","b_a montage/ba_144.jpg","82","image-keyboard-response","360","522662","0.0-3.0-1.178","","","Update","b","false"
"null","<div style=""font-size:60px;"">+</div>","null","html-keyboard-response","361","523163","0.0-3.0-0.179","","fixation","","",""
"2467","a_b montage/ab_078.jpg","76","image-keyboard-response","362","525631","0.0-3.0-1.179","","","Repeat","l","true"
"null","<div style=""font-size:60px;"">+</div>","null","html-keyboard-response","363","526133","0.0-3.0-0.180","","fixation","","",""
"1244","a_b montage/ab_184.jpg","78","image-keyboard-response","364","527379","0.0-3.0-1.180","","","Set_2_Only","l","false"
"null","<div style=""font-size:60px;"">+</div>","null","html-keyboard-response","365","527881","0.0-3.0-0.181","","fixation","","",""
"1561","b_a montage/ba_121.jpg","66","image-keyboard-response","366","529443","0.0-3.0-1.181","","","Update","b","true"
"null","<div style=""font-size:60px;"">+</div>","null","html-keyboard-response","367","529946","0.0-3.0-0.182","","fixation","","",""
"1331","b_a montage/ba_001.jpg","82","image-keyboard-response","368","531278","0.0-3.0-1.182","","","Set_1_Only","r","true"
"null","<div style=""font-size:60px;"">+</div>","null","html-keyboard-response","369","531780","0.0-3.0-0.183","","fixation","","",""
"1334","b_a montage/ba_106.jpg","78","image-keyboard-response","370","533115","0.0-3.0-1.183","","","Update","b","false"
"null","<div style=""font-size:60px;"">+</div>","null","html-keyboard-response","371","533617","0.0-3.0-0.184","","fixation","","",""
"1074","b_a montage/ba_122.jpg","78","image-keyboard-response","372","534693","0.0-3.0-1.184","","","Update","b","false"
"null","<div style=""font-size:60px;"">+</div>","null","html-keyboard-response","373","535195","0.0-3.0-0.185","","fixation","","",""
"1907","b_a montage/ba_064.jpg","76","image-keyboard-response","374","537103","0.0-3.0-1.185","","","Repeat","r","false"
"null","<div style=""font-size:60px;"">+</div>","null","html-keyboard-response","375","537605","0.0-3.0-0.186","","fixation","","",""
"1327","b_a montage/ba_059.jpg","78","image-keyboard-response","376","538933","0.0-3.0-1.186","","","Repeat","r","false"
"null","<div style=""font-size:60px;"">+</div>","null","html-keyboard-response","377","539433","0.0-3.0-0.187","","fixation","","",""
"2228","b_a montage/ba_175.jpg","78","image-keyboard-response","378","541662","0.0-3.0-1.187","","","Set_2_Only","r","false"
"null","<div style=""font-size:60px;"">+</div>","null","html-keyboard-response","379","542165","0.0-3.0-0.188","","fixation","","",""
"1174","b_a montage/ba_169.jpg","78","image-keyboard-response","380","543342","0.0-3.0-1.188","","","Set_2_Only","r","false"
"null","<div style=""font-size:60px;"">+</div>","null","html-keyboard-response","381","543845","0.0-3.0-0.189","","fixation","","",""
"1047","b_a montage/ba_151.jpg","78","image-keyboard-response","382","544893","0.0-3.0-1.189","","","Update","b","false"
"null","<div style=""font-size:60px;"">+</div>","null","html-keyboard-response","383","545396","0.0-3.0-0.190","","fixation","","",""
"1936","b_a montage/ba_010.jpg","76","image-keyboard-response","384","547333","0.0-3.0-1.190","","","Set_1_Only","r","false"
"null","<div style=""font-size:60px;"">+</div>","null","html-keyboard-response","385","547837","0.0-3.0-0.191","","fixation","","",""
"1787","b_a montage/ba_164.jpg","82","image-keyboard-response","386","549626","0.0-3.0-1.191","","","Set_2_Only","r","true"
"null","<div style=""font-size:60px;"">+</div>","null","html-keyboard-response","387","550129","0.0-3.0-0.192","","fixation","","",""
"3203","a_b montage/ab_070.jpg","82","image-keyboard-response","388","553334","0.0-3.0-1.192","","","Repeat","l","false"
"null","<div style=""font-size:60px;"">+</div>","null","html-keyboard-response","389","553837","0.0-3.0-0.193","","fixation","","",""
"1147","b_a montage/ba_044.jpg","78","image-keyboard-response","390","554986","0.0-3.0-1.193","","","Repeat","r","false"
"null","<div style=""font-size:60px;"">+</div>","null","html-keyboard-response","391","555487","0.0-3.0-0.194","","fixation","","",""
"2245","b_a montage/ba_035.jpg","78","image-keyboard-response","392","557733","0.0-3.0-1.194","","","Repeat","r","false"
"null","<div style=""font-size:60px;"">+</div>","null","html-keyboard-response","393","558236","0.0-3.0-0.195","","fixation","","",""
"2106","b_a montage/ba_040.jpg","66","image-keyboard-response","394","560344","0.0-3.0-1.195","","","Repeat","r","false"
"null","<div style=""font-size:60px;"">+</div>","null","html-keyboard-response","395","560847","0.0-3.0-0.196","","fixation","","",""
"1392","b_a montage/ba_124.jpg","76","image-keyboard-response","396","562241","0.0-3.0-1.196","","","Update","b","false"
"null","<div style=""font-size:60px;"">+</div>","null","html-keyboard-response","397","562744","0.0-3.0-0.197","","fixation","","",""
"1315","a_b montage/ab_025.jpg","82","image-keyboard-response","398","564060","0.0-3.0-1.197","","","Set_1_Only","l","false"
"null","<div style=""font-size:60px;"">+</div>","null","html-keyboard-response","399","564561","0.0-3.0-0.198","","fixation","","",""
"1565","b_a montage/ba_165.jpg","66","image-keyboard-response","400","566127","0.0-3.0-1.198","","","Set_2_Only","r","false"
"null","<div style=""font-size:60px;"">+</div>","null","html-keyboard-response","401","566630","0.0-3.0-0.199","","fixation","","",""
"1650","b_a montage/ba_138.jpg","76","image-keyboard-response","402","568281","0.0-3.0-1.199","","","Update","b","false"
"null","<div style=""font-size:60px;"">+</div>","null","html-keyboard-response","403","568783","0.0-3.0-0.200","","fixation","","",""
"1442","a_b montage/ab_028.jpg","78","image-keyboard-response","404","570226","0.0-3.0-1.200","","","Set_1_Only","l","false"
"null","<div style=""font-size:60px;"">+</div>","null","html-keyboard-response","405","570728","0.0-3.0-0.201","","fixation","","",""
"1471","a_b montage/ab_076.jpg","82","image-keyboard-response","406","572202","0.0-3.0-1.201","","","Repeat","l","false"
"null","<div style=""font-size:60px;"">+</div>","null","html-keyboard-response","407","572705","0.0-3.0-0.202","","fixation","","",""
"1683","b_a new/ba_012.jpg","78","image-keyboard-response","408","574390","0.0-3.0-1.202","","","Neither","n","true"
"null","<div style=""font-size:60px;"">+</div>","null","html-keyboard-response","409","574893","0.0-3.0-0.203","","fixation","","",""
"1720","a_b montage/ab_068.jpg","76","image-keyboard-response","410","576614","0.0-3.0-1.203","","","Repeat","l","true"
"null","<div style=""font-size:60px;"">+</div>","null","html-keyboard-response","411","577116","0.0-3.0-0.204","","fixation","","",""
"2143","b_a montage/ba_115.jpg","66","image-keyboard-response","412","579262","0.0-3.0-1.204","","","Update","b","true"
"null","<div style=""font-size:60px;"">+</div>","null","html-keyboard-response","413","579764","0.0-3.0-0.205","","fixation","","",""
"1327","b_a montage/ba_118.jpg","82","image-keyboard-response","414","581096","0.0-3.0-1.205","","","Update","b","false"
"null","<div style=""font-size:60px;"">+</div>","null","html-keyboard-response","415","581598","0.0-3.0-0.206","","fixation","","",""
"1365","a_b montage/ab_189.jpg","78","image-keyboard-response","416","582965","0.0-3.0-1.206","","","Set_2_Only","l","false"
"null","<div style=""font-size:60px;"">+</div>","null","html-keyboard-response","417","583467","0.0-3.0-0.207","","fixation","","",""
"2517","b_a new/ba_009.jpg","78","image-keyboard-response","418","585985","0.0-3.0-1.207","","","Neither","n","true"
