"rt","stimulus","key_press","trial_type","trial_index","time_elapsed","internal_node_id","responses","test_part","stim_type","correct_response","correct"
"4659","Press any key to begin.","32","html-keyboard-response","0","4673","0.0-0.0","","","","",""
"3512","","","survey-text","1","8189","0.0-1.0","{""Q0"":""Test_128719"",""Q1"":""""}","","","",""
"10503","<p>For this phase you will see two similar images side by side on the screen I want you to tell us which of the items you have seen before in any of the previous sets of images. </p><p>If you have only seen the image on the left you will press the 'L' key on your keyboard.</p>If you have only seen the image on the right you will press the 'R' key on your keyboard.</p>If you have previously seen both of the images you will press the 'B' key on your keyboard.</p>If you have not seen either image you will press the 'N' key on your keyboard.</p><div style='width: 700px;'></div><p>Press any key to begin.</p>","32","html-keyboard-response","2","18694","0.0-2.0","","","","",""
"null","<div style=""font-size:60px;"">+</div>","null","html-keyboard-response","3","21224","0.0-3.0-0.0","","fixation","","",""
"5145","b_a montage/ba_038.jpg","78","image-keyboard-response","4","26373","0.0-3.0-1.0","","","Repeat","r","false"
"null","<div style=""font-size:60px;"">+</div>","null","html-keyboard-response","5","26889","0.0-3.0-0.1","","fixation","","",""
"3082","a_b new/ab_008.jpg","78","image-keyboard-response","6","29973","0.0-3.0-1.1","","","Neither","n","true"
"null","<div style=""font-size:60px;"">+</div>","null","html-keyboard-response","7","30488","0.0-3.0-0.2","","fixation","","",""
"3621","a_b montage/ab_109.jpg","66","image-keyboard-response","8","34109","0.0-3.0-1.2","","","Update","b","true"
"null","<div style=""font-size:60px;"">+</div>","null","html-keyboard-response","9","34621","0.0-3.0-0.3","","fixation","","",""
"3958","a_b montage/ab_088.jpg","76","image-keyboard-response","10","38581","0.0-3.0-1.3","","","Repeat","l","true"
"null","<div style=""font-size:60px;"">+</div>","null","html-keyboard-response","11","39084","0.0-3.0-0.4","","fixation","","",""
"3063","a_b montage/ab_067.jpg","76","image-keyboard-response","12","42149","0.0-3.0-1.4","","","Repeat","l","true"
"null","<div style=""font-size:60px;"">+</div>","null","html-keyboard-response","13","42667","0.0-3.0-0.5","","fixation","","",""
"2975","b_a montage/ba_174.jpg","76","image-keyboard-response","14","45646","0.0-3.0-1.5","","","Set_2_Only","r","false"
"null","<div style=""font-size:60px;"">+</div>","null","html-keyboard-response","15","46149","0.0-3.0-0.6","","fixation","","",""
"3654","a_b montage/ab_103.jpg","66","image-keyboard-response","16","49805","0.0-3.0-1.6","","","Update","b","true"
"null","<div style=""font-size:60px;"">+</div>","null","html-keyboard-response","17","50314","0.0-3.0-0.7","","fixation","","",""
"3074","a_b montage/ab_129.jpg","82","image-keyboard-response","18","53388","0.0-3.0-1.7","","","Update","b","false"
"null","<div style=""font-size:60px;"">+</div>","null","html-keyboard-response","19","53897","0.0-3.0-0.8","","fixation","","",""
"3277","a_b montage/ab_130.jpg","66","image-keyboard-response","20","57174","0.0-3.0-1.8","","","Update","b","true"
"null","<div style=""font-size:60px;"">+</div>","null","html-keyboard-response","21","57679","0.0-3.0-0.9","","fixation","","",""
"3445","a_b montage/ab_181.jpg","76","image-keyboard-response","22","61124","0.0-3.0-1.9","","","Set_2_Only","l","true"
"null","<div style=""font-size:60px;"">+</div>","null","html-keyboard-response","23","61641","0.0-3.0-0.10","","fixation","","",""
"1437","a_b montage/ab_179.jpg","76","image-keyboard-response","24","63078","0.0-3.0-1.10","","","Set_2_Only","l","true"
"null","<div style=""font-size:60px;"">+</div>","null","html-keyboard-response","25","63589","0.0-3.0-0.11","","fixation","","",""
"2790","a_b new/ab_016.jpg","78","image-keyboard-response","26","66381","0.0-3.0-1.11","","","Neither","n","true"
"null","<div style=""font-size:60px;"">+</div>","null","html-keyboard-response","27","66889","0.0-3.0-0.12","","fixation","","",""
"2698","a_b montage/ab_153.jpg","66","image-keyboard-response","28","69589","0.0-3.0-1.12","","","Update","b","true"
"null","<div style=""font-size:60px;"">+</div>","null","html-keyboard-response","29","70105","0.0-3.0-0.13","","fixation","","",""
"2425","b_a montage/ba_009.jpg","66","image-keyboard-response","30","72534","0.0-3.0-1.13","","","Set_1_Only","r","false"
"null","<div style=""font-size:60px;"">+</div>","null","html-keyboard-response","31","73038","0.0-3.0-0.14","","fixation","","",""
"1367","a_b montage/ab_141.jpg","66","image-keyboard-response","32","74405","0.0-3.0-1.14","","","Update","b","true"
"null","<div style=""font-size:60px;"">+</div>","null","html-keyboard-response","33","74918","0.0-3.0-0.15","","fixation","","",""
"2292","a_b montage/ab_079.jpg","76","image-keyboard-response","34","77212","0.0-3.0-1.15","","","Repeat","l","true"
"null","<div style=""font-size:60px;"">+</div>","null","html-keyboard-response","35","77717","0.0-3.0-0.16","","fixation","","",""
"1761","b_a montage/ba_176.jpg","82","image-keyboard-response","36","79478","0.0-3.0-1.16","","","Set_2_Only","r","true"
"null","<div style=""font-size:60px;"">+</div>","null","html-keyboard-response","37","79983","0.0-3.0-0.17","","fixation","","",""
"1719","a_b montage/ab_017.jpg","76","image-keyboard-response","38","81702","0.0-3.0-1.17","","","Set_1_Only","l","true"
"null","<div style=""font-size:60px;"">+</div>","null","html-keyboard-response","39","82218","0.0-3.0-0.18","","fixation","","",""
"2164","a_b montage/ab_069.jpg","76","image-keyboard-response","40","84382","0.0-3.0-1.18","","","Repeat","l","true"
"null","<div style=""font-size:60px;"">+</div>","null","html-keyboard-response","41","84897","0.0-3.0-0.19","","fixation","","",""
"4426","a_b montage/ab_100.jpg","82","image-keyboard-response","42","89325","0.0-3.0-1.19","","","Update","b","false"
"null","<div style=""font-size:60px;"">+</div>","null","html-keyboard-response","43","89830","0.0-3.0-0.20","","fixation","","",""
"1719","a_b new/ab_001.jpg","78","image-keyboard-response","44","91549","0.0-3.0-1.20","","","Neither","n","true"
"null","<div style=""font-size:60px;"">+</div>","null","html-keyboard-response","45","92063","0.0-3.0-0.21","","fixation","","",""
"2516","b_a montage/ba_013.jpg","82","image-keyboard-response","46","94581","0.0-3.0-1.21","","","Set_1_Only","r","true"
"null","<div style=""font-size:60px;"">+</div>","null","html-keyboard-response","47","95092","0.0-3.0-0.22","","fixation","","",""
"1834","a_b montage/ab_066.jpg","76","image-keyboard-response","48","96926","0.0-3.0-1.22","","","Repeat","l","true"
"null","<div style=""font-size:60px;"">+</div>","null","html-keyboard-response","49","97428","0.0-3.0-0.23","","fixation","","",""
"1784","b_a montage/ba_041.jpg","82","image-keyboard-response","50","99212","0.0-3.0-1.23","","","Repeat","r","true"
"null","<div style=""font-size:60px;"">+</div>","null","html-keyboard-response","51","99727","0.0-3.0-0.24","","fixation","","",""
"2485","b_a montage/ba_043.jpg","66","image-keyboard-response","52","102212","0.0-3.0-1.24","","","Repeat","r","false"
"null","<div style=""font-size:60px;"">+</div>","null","html-keyboard-response","53","102725","0.0-3.0-0.25","","fixation","","",""
"3103","a_b montage/ab_080.jpg","66","image-keyboard-response","54","105830","0.0-3.0-1.25","","","Repeat","l","false"
"null","<div style=""font-size:60px;"">+</div>","null","html-keyboard-response","55","106339","0.0-3.0-0.26","","fixation","","",""
"2226","a_b montage/ab_131.jpg","82","image-keyboard-response","56","108566","0.0-3.0-1.26","","","Update","b","false"
"null","<div style=""font-size:60px;"">+</div>","null","html-keyboard-response","57","109071","0.0-3.0-0.27","","fixation","","",""
"1558","a_b montage/ab_147.jpg","66","image-keyboard-response","58","110629","0.0-3.0-1.27","","","Update","b","true"
"null","<div style=""font-size:60px;"">+</div>","null","html-keyboard-response","59","111138","0.0-3.0-0.28","","fixation","","",""
"2709","b_a montage/ba_047.jpg","76","image-keyboard-response","60","113847","0.0-3.0-1.28","","","Repeat","r","false"
"null","<div style=""font-size:60px;"">+</div>","null","html-keyboard-response","61","114352","0.0-3.0-0.29","","fixation","","",""
"2254","b_a montage/ba_168.jpg","82","image-keyboard-response","62","116606","0.0-3.0-1.29","","","Set_2_Only","r","true"
"null","<div style=""font-size:60px;"">+</div>","null","html-keyboard-response","63","117119","0.0-3.0-0.30","","fixation","","",""
"3648","a_b montage/ab_104.jpg","76","image-keyboard-response","64","120767","0.0-3.0-1.30","","","Update","b","false"
"null","<div style=""font-size:60px;"">+</div>","null","html-keyboard-response","65","121268","0.0-3.0-0.31","","fixation","","",""
"1424","a_b montage/ab_159.jpg","66","image-keyboard-response","66","122694","0.0-3.0-1.31","","","Update","b","true"
"null","<div style=""font-size:60px;"">+</div>","null","html-keyboard-response","67","123199","0.0-3.0-0.32","","fixation","","",""
"2792","a_b montage/ab_091.jpg","76","image-keyboard-response","68","125991","0.0-3.0-1.32","","","Repeat","l","true"
"null","<div style=""font-size:60px;"">+</div>","null","html-keyboard-response","69","126495","0.0-3.0-0.33","","fixation","","",""
"2044","a_b montage/ab_185.jpg","76","image-keyboard-response","70","128541","0.0-3.0-1.33","","","Set_2_Only","l","true"
"null","<div style=""font-size:60px;"">+</div>","null","html-keyboard-response","71","129044","0.0-3.0-0.34","","fixation","","",""
"2199","a_b montage/ab_107.jpg","66","image-keyboard-response","72","131245","0.0-3.0-1.34","","","Update","b","true"
"null","<div style=""font-size:60px;"">+</div>","null","html-keyboard-response","73","131761","0.0-3.0-0.35","","fixation","","",""
"2637","b_a montage/ba_163.jpg","82","image-keyboard-response","74","134398","0.0-3.0-1.35","","","Set_2_Only","r","true"
"null","<div style=""font-size:60px;"">+</div>","null","html-keyboard-response","75","134912","0.0-3.0-0.36","","fixation","","",""
"1757","a_b new/ab_011.jpg","78","image-keyboard-response","76","136669","0.0-3.0-1.36","","","Neither","n","true"
"null","<div style=""font-size:60px;"">+</div>","null","html-keyboard-response","77","137176","0.0-3.0-0.37","","fixation","","",""
"2308","a_b montage/ab_182.jpg","76","image-keyboard-response","78","139486","0.0-3.0-1.37","","","Set_2_Only","l","true"
"null","<div style=""font-size:60px;"">+</div>","null","html-keyboard-response","79","139992","0.0-3.0-0.38","","fixation","","",""
"1725","a_b montage/ab_188.jpg","76","image-keyboard-response","80","141717","0.0-3.0-1.38","","","Set_2_Only","l","true"
"null","<div style=""font-size:60px;"">+</div>","null","html-keyboard-response","81","142226","0.0-3.0-0.39","","fixation","","",""
"1778","a_b montage/ab_099.jpg","66","image-keyboard-response","82","144006","0.0-3.0-1.39","","","Update","b","true"
"null","<div style=""font-size:60px;"">+</div>","null","html-keyboard-response","83","144520","0.0-3.0-0.40","","fixation","","",""
"2411","a_b montage/ab_127.jpg","82","image-keyboard-response","84","146933","0.0-3.0-1.40","","","Update","b","false"
"null","<div style=""font-size:60px;"">+</div>","null","html-keyboard-response","85","147440","0.0-3.0-0.41","","fixation","","",""
"null","b_a montage/ba_050.jpg","null","image-keyboard-response","86","157455","0.0-3.0-1.41","","","Repeat","r","false"
"null","<div style=""font-size:60px;"">+</div>","null","html-keyboard-response","87","157971","0.0-3.0-0.42","","fixation","","",""
"2482","a_b montage/ab_142.jpg","76","image-keyboard-response","88","160453","0.0-3.0-1.42","","","Update","b","false"
"null","<div style=""font-size:60px;"">+</div>","null","html-keyboard-response","89","160970","0.0-3.0-0.43","","fixation","","",""
"2587","b_a montage/ba_056.jpg","66","image-keyboard-response","90","163558","0.0-3.0-1.43","","","Repeat","r","false"
"null","<div style=""font-size:60px;"">+</div>","null","html-keyboard-response","91","164067","0.0-3.0-0.44","","fixation","","",""
"1520","a_b montage/ab_150.jpg","66","image-keyboard-response","92","165589","0.0-3.0-1.44","","","Update","b","true"
"null","<div style=""font-size:60px;"">+</div>","null","html-keyboard-response","93","166098","0.0-3.0-0.45","","fixation","","",""
"2483","a_b montage/ab_020.jpg","76","image-keyboard-response","94","168581","0.0-3.0-1.45","","","Set_1_Only","l","true"
"null","<div style=""font-size:60px;"">+</div>","null","html-keyboard-response","95","169100","0.0-3.0-0.46","","fixation","","",""
"3237","a_b montage/ab_139.jpg","82","image-keyboard-response","96","172342","0.0-3.0-1.46","","","Update","b","false"
"null","<div style=""font-size:60px;"">+</div>","null","html-keyboard-response","97","172845","0.0-3.0-0.47","","fixation","","",""
"2031","a_b montage/ab_149.jpg","76","image-keyboard-response","98","174878","0.0-3.0-1.47","","","Update","b","false"
"null","<div style=""font-size:60px;"">+</div>","null","html-keyboard-response","99","175394","0.0-3.0-0.48","","fixation","","",""
"1440","a_b new/ab_003.jpg","78","image-keyboard-response","100","176838","0.0-3.0-1.48","","","Neither","n","true"
"null","<div style=""font-size:60px;"">+</div>","null","html-keyboard-response","101","177342","0.0-3.0-0.49","","fixation","","",""
"3214","a_b montage/ab_098.jpg","66","image-keyboard-response","102","180558","0.0-3.0-1.49","","","Update","b","true"
"null","<div style=""font-size:60px;"">+</div>","null","html-keyboard-response","103","181075","0.0-3.0-0.50","","fixation","","",""
"2159","a_b montage/ab_084.jpg","76","image-keyboard-response","104","183237","0.0-3.0-1.50","","","Repeat","l","true"
"null","<div style=""font-size:60px;"">+</div>","null","html-keyboard-response","105","183755","0.0-3.0-0.51","","fixation","","",""
"1289","a_b montage/ab_177.jpg","76","image-keyboard-response","106","185044","0.0-3.0-1.51","","","Set_2_Only","l","true"
"null","<div style=""font-size:60px;"">+</div>","null","html-keyboard-response","107","185557","0.0-3.0-0.52","","fixation","","",""
"1791","a_b montage/ab_111.jpg","66","image-keyboard-response","108","187348","0.0-3.0-1.52","","","Update","b","true"
"null","<div style=""font-size:60px;"">+</div>","null","html-keyboard-response","109","187855","0.0-3.0-0.53","","fixation","","",""
"1740","a_b montage/ab_090.jpg","76","image-keyboard-response","110","189597","0.0-3.0-1.53","","","Repeat","l","true"
"null","<div style=""font-size:60px;"">+</div>","null","html-keyboard-response","111","190105","0.0-3.0-0.54","","fixation","","",""
"1813","b_a montage/ba_012.jpg","82","image-keyboard-response","112","191918","0.0-3.0-1.54","","","Set_1_Only","r","true"
"null","<div style=""font-size:60px;"">+</div>","null","html-keyboard-response","113","192434","0.0-3.0-0.55","","fixation","","",""
"1987","b_a montage/ba_039.jpg","82","image-keyboard-response","114","194421","0.0-3.0-1.55","","","Repeat","r","true"
"null","<div style=""font-size:60px;"">+</div>","null","html-keyboard-response","115","194939","0.0-3.0-0.56","","fixation","","",""
"2074","a_b montage/ab_125.jpg","82","image-keyboard-response","116","197013","0.0-3.0-1.56","","","Update","b","false"
"null","<div style=""font-size:60px;"">+</div>","null","html-keyboard-response","117","197520","0.0-3.0-0.57","","fixation","","",""
"2981","b_a montage/ba_172.jpg","76","image-keyboard-response","118","200503","0.0-3.0-1.57","","","Set_2_Only","r","false"
"null","<div style=""font-size:60px;"">+</div>","null","html-keyboard-response","119","201017","0.0-3.0-0.58","","fixation","","",""
"1755","b_a montage/ba_046.jpg","82","image-keyboard-response","120","202774","0.0-3.0-1.58","","","Repeat","r","true"
"null","<div style=""font-size:60px;"">+</div>","null","html-keyboard-response","121","203283","0.0-3.0-0.59","","fixation","","",""
"1528","b_a montage/ba_004.jpg","82","image-keyboard-response","122","204813","0.0-3.0-1.59","","","Set_1_Only","r","true"
"null","<div style=""font-size:60px;"">+</div>","null","html-keyboard-response","123","205329","0.0-3.0-0.60","","fixation","","",""
"1074","b_a montage/ba_062.jpg","82","image-keyboard-response","124","206405","0.0-3.0-1.60","","","Repeat","r","true"
"null","<div style=""font-size:60px;"">+</div>","null","html-keyboard-response","125","206914","0.0-3.0-0.61","","fixation","","",""
"1409","b_a montage/ba_166.jpg","82","image-keyboard-response","126","208325","0.0-3.0-1.61","","","Set_2_Only","r","true"
"null","<div style=""font-size:60px;"">+</div>","null","html-keyboard-response","127","208832","0.0-3.0-0.62","","fixation","","",""
"2227","a_b montage/ab_148.jpg","82","image-keyboard-response","128","211061","0.0-3.0-1.62","","","Update","b","false"
"null","<div style=""font-size:60px;"">+</div>","null","html-keyboard-response","129","211564","0.0-3.0-0.63","","fixation","","",""
"2321","a_b montage/ab_108.jpg","76","image-keyboard-response","130","213885","0.0-3.0-1.63","","","Update","b","false"
"null","<div style=""font-size:60px;"">+</div>","null","html-keyboard-response","131","214394","0.0-3.0-0.64","","fixation","","",""
"1338","a_b new/ab_010.jpg","78","image-keyboard-response","132","215734","0.0-3.0-1.64","","","Neither","n","true"
"null","<div style=""font-size:60px;"">+</div>","null","html-keyboard-response","133","216243","0.0-3.0-0.65","","fixation","","",""
"1889","b_a montage/ba_011.jpg","82","image-keyboard-response","134","218132","0.0-3.0-1.65","","","Set_1_Only","r","true"
"null","<div style=""font-size:60px;"">+</div>","null","html-keyboard-response","135","218643","0.0-3.0-0.66","","fixation","","",""
"1666","a_b montage/ab_180.jpg","66","image-keyboard-response","136","220310","0.0-3.0-1.66","","","Set_2_Only","l","false"
"null","<div style=""font-size:60px;"">+</div>","null","html-keyboard-response","137","220826","0.0-3.0-0.67","","fixation","","",""
"3644","b_a montage/ba_015.jpg","82","image-keyboard-response","138","224470","0.0-3.0-1.67","","","Set_1_Only","r","true"
"null","<div style=""font-size:60px;"">+</div>","null","html-keyboard-response","139","224973","0.0-3.0-0.68","","fixation","","",""
"2191","b_a montage/ba_058.jpg","82","image-keyboard-response","140","227166","0.0-3.0-1.68","","","Repeat","r","true"
"null","<div style=""font-size:60px;"">+</div>","null","html-keyboard-response","141","227673","0.0-3.0-0.69","","fixation","","",""
"2027","a_b montage/ab_154.jpg","66","image-keyboard-response","142","229700","0.0-3.0-1.69","","","Update","b","true"
"null","<div style=""font-size:60px;"">+</div>","null","html-keyboard-response","143","230203","0.0-3.0-0.70","","fixation","","",""
"1864","a_b montage/ab_112.jpg","66","image-keyboard-response","144","232069","0.0-3.0-1.70","","","Update","b","true"
"null","<div style=""font-size:60px;"">+</div>","null","html-keyboard-response","145","232574","0.0-3.0-0.71","","fixation","","",""
"3703","a_b montage/ab_183.jpg","76","image-keyboard-response","146","236277","0.0-3.0-1.71","","","Set_2_Only","l","true"
"null","<div style=""font-size:60px;"">+</div>","null","html-keyboard-response","147","236786","0.0-3.0-0.72","","fixation","","",""
"2212","a_b montage/ab_192.jpg","66","image-keyboard-response","148","238998","0.0-3.0-1.72","","","Set_2_Only","l","false"
"null","<div style=""font-size:60px;"">+</div>","null","html-keyboard-response","149","239501","0.0-3.0-0.73","","fixation","","",""
"1222","a_b montage/ab_113.jpg","66","image-keyboard-response","150","240725","0.0-3.0-1.73","","","Update","b","true"
"null","<div style=""font-size:60px;"">+</div>","null","html-keyboard-response","151","241231","0.0-3.0-0.74","","fixation","","",""
"2100","b_a montage/ba_037.jpg","82","image-keyboard-response","152","243333","0.0-3.0-1.74","","","Repeat","r","true"
"null","<div style=""font-size:60px;"">+</div>","null","html-keyboard-response","153","243849","0.0-3.0-0.75","","fixation","","",""
"3381","a_b montage/ab_019.jpg","82","image-keyboard-response","154","247230","0.0-3.0-1.75","","","Set_1_Only","l","false"
"null","<div style=""font-size:60px;"">+</div>","null","html-keyboard-response","155","247744","0.0-3.0-0.76","","fixation","","",""
"2090","a_b montage/ab_018.jpg","76","image-keyboard-response","156","249838","0.0-3.0-1.76","","","Set_1_Only","l","true"
"null","<div style=""font-size:60px;"">+</div>","null","html-keyboard-response","157","250346","0.0-3.0-0.77","","fixation","","",""
"1161","a_b montage/ab_085.jpg","76","image-keyboard-response","158","251509","0.0-3.0-1.77","","","Repeat","l","true"
"null","<div style=""font-size:60px;"">+</div>","null","html-keyboard-response","159","252012","0.0-3.0-0.78","","fixation","","",""
"1802","b_a montage/ba_034.jpg","82","image-keyboard-response","160","253815","0.0-3.0-1.78","","","Repeat","r","true"
"null","<div style=""font-size:60px;"">+</div>","null","html-keyboard-response","161","254327","0.0-3.0-0.79","","fixation","","",""
"1973","a_b montage/ab_117.jpg","66","image-keyboard-response","162","256302","0.0-3.0-1.79","","","Update","b","true"
"null","<div style=""font-size:60px;"">+</div>","null","html-keyboard-response","163","256809","0.0-3.0-0.80","","fixation","","",""
"3105","a_b montage/ab_082.jpg","76","image-keyboard-response","164","259916","0.0-3.0-1.80","","","Repeat","l","true"
"null","<div style=""font-size:60px;"">+</div>","null","html-keyboard-response","165","260425","0.0-3.0-0.81","","fixation","","",""
"1090","a_b montage/ab_092.jpg","76","image-keyboard-response","166","261516","0.0-3.0-1.81","","","Repeat","l","true"
"null","<div style=""font-size:60px;"">+</div>","null","html-keyboard-response","167","262023","0.0-3.0-0.82","","fixation","","",""
"2237","b_a montage/ba_060.jpg","66","image-keyboard-response","168","264262","0.0-3.0-1.82","","","Repeat","r","false"
"null","<div style=""font-size:60px;"">+</div>","null","html-keyboard-response","169","264774","0.0-3.0-0.83","","fixation","","",""
"2150","b_a montage/ba_061.jpg","82","image-keyboard-response","170","266926","0.0-3.0-1.83","","","Repeat","r","true"
"null","<div style=""font-size:60px;"">+</div>","null","html-keyboard-response","171","267440","0.0-3.0-0.84","","fixation","","",""
"1606","a_b montage/ab_158.jpg","66","image-keyboard-response","172","269046","0.0-3.0-1.84","","","Update","b","true"
"null","<div style=""font-size:60px;"">+</div>","null","html-keyboard-response","173","269555","0.0-3.0-0.85","","fixation","","",""
"2048","a_b montage/ab_075.jpg","76","image-keyboard-response","174","271604","0.0-3.0-1.85","","","Repeat","l","true"
"null","<div style=""font-size:60px;"">+</div>","null","html-keyboard-response","175","272119","0.0-3.0-0.86","","fixation","","",""
"1847","a_b montage/ab_086.jpg","66","image-keyboard-response","176","273966","0.0-3.0-1.86","","","Repeat","l","false"
"null","<div style=""font-size:60px;"">+</div>","null","html-keyboard-response","177","274470","0.0-3.0-0.87","","fixation","","",""
"1000","a_b montage/ab_190.jpg","66","image-keyboard-response","178","275470","0.0-3.0-1.87","","","Set_2_Only","l","false"
"null","<div style=""font-size:60px;"">+</div>","null","html-keyboard-response","179","275987","0.0-3.0-0.88","","fixation","","",""
"2122","b_a montage/ba_055.jpg","82","image-keyboard-response","180","278109","0.0-3.0-1.88","","","Repeat","r","true"
"null","<div style=""font-size:60px;"">+</div>","null","html-keyboard-response","181","278618","0.0-3.0-0.89","","fixation","","",""
"2755","a_b montage/ab_135.jpg","76","image-keyboard-response","182","281373","0.0-3.0-1.89","","","Update","b","false"
"null","<div style=""font-size:60px;"">+</div>","null","html-keyboard-response","183","281885","0.0-3.0-0.90","","fixation","","",""
"1664","a_b montage/ab_137.jpg","66","image-keyboard-response","184","283549","0.0-3.0-1.90","","","Update","b","true"
"null","<div style=""font-size:60px;"">+</div>","null","html-keyboard-response","185","284067","0.0-3.0-0.91","","fixation","","",""
"3539","b_a montage/ba_006.jpg","82","image-keyboard-response","186","287606","0.0-3.0-1.91","","","Set_1_Only","r","true"
"null","<div style=""font-size:60px;"">+</div>","null","html-keyboard-response","187","288113","0.0-3.0-0.92","","fixation","","",""
"1457","b_a montage/ba_170.jpg","78","image-keyboard-response","188","289572","0.0-3.0-1.92","","","Set_2_Only","r","false"
"null","<div style=""font-size:60px;"">+</div>","null","html-keyboard-response","189","290082","0.0-3.0-0.93","","fixation","","",""
"2547","b_a montage/ba_051.jpg","82","image-keyboard-response","190","292629","0.0-3.0-1.93","","","Repeat","r","true"
"null","<div style=""font-size:60px;"">+</div>","null","html-keyboard-response","191","293145","0.0-3.0-0.94","","fixation","","",""
"1769","a_b montage/ab_128.jpg","66","image-keyboard-response","192","294918","0.0-3.0-1.94","","","Update","b","true"
"null","<div style=""font-size:60px;"">+</div>","null","html-keyboard-response","193","295426","0.0-3.0-0.95","","fixation","","",""
"1153","a_b montage/ab_145.jpg","66","image-keyboard-response","194","296581","0.0-3.0-1.95","","","Update","b","true"
"null","<div style=""font-size:60px;"">+</div>","null","html-keyboard-response","195","297092","0.0-3.0-0.96","","fixation","","",""
"2143","a_b montage/ab_031.jpg","76","image-keyboard-response","196","299237","0.0-3.0-1.96","","","Set_1_Only","l","true"
"null","<div style=""font-size:60px;"">+</div>","null","html-keyboard-response","197","299742","0.0-3.0-0.97","","fixation","","",""
"1271","a_b montage/ab_071.jpg","76","image-keyboard-response","198","301013","0.0-3.0-1.97","","","Repeat","l","true"
"null","<div style=""font-size:60px;"">+</div>","null","html-keyboard-response","199","301522","0.0-3.0-0.98","","fixation","","",""
"1442","b_a montage/ba_120.jpg","76","image-keyboard-response","200","302966","0.0-3.0-1.98","","","Update","b","false"
"null","<div style=""font-size:60px;"">+</div>","null","html-keyboard-response","201","303476","0.0-3.0-0.99","","fixation","","",""
"1872","b_a montage/ba_143.jpg","66","image-keyboard-response","202","305350","0.0-3.0-1.99","","","Update","b","true"
"null","<div style=""font-size:60px;"">+</div>","null","html-keyboard-response","203","305855","0.0-3.0-0.100","","fixation","","",""
"2388","b_a montage/ba_146.jpg","76","image-keyboard-response","204","308245","0.0-3.0-1.100","","","Update","b","false"
"null","<div style=""font-size:60px;"">+</div>","null","html-keyboard-response","205","308755","0.0-3.0-0.101","","fixation","","",""
"1327","a_b new/ab_015.jpg","78","image-keyboard-response","206","310084","0.0-3.0-1.101","","","Neither","n","true"
"null","<div style=""font-size:60px;"">+</div>","null","html-keyboard-response","207","310602","0.0-3.0-0.102","","fixation","","",""
"1608","b_a montage/ba_097.jpg","66","image-keyboard-response","208","312212","0.0-3.0-1.102","","","Update","b","true"
"null","<div style=""font-size:60px;"">+</div>","null","html-keyboard-response","209","312719","0.0-3.0-0.103","","fixation","","",""
"1988","b_a montage/ba_036.jpg","82","image-keyboard-response","210","314709","0.0-3.0-1.103","","","Repeat","r","true"
"null","<div style=""font-size:60px;"">+</div>","null","html-keyboard-response","211","315218","0.0-3.0-0.104","","fixation","","",""
"1587","b_a montage/ba_136.jpg","66","image-keyboard-response","212","316805","0.0-3.0-1.104","","","Update","b","true"
"null","<div style=""font-size:60px;"">+</div>","null","html-keyboard-response","213","317317","0.0-3.0-0.105","","fixation","","",""
"1104","a_b montage/ab_073.jpg","66","image-keyboard-response","214","318421","0.0-3.0-1.105","","","Repeat","l","false"
"null","<div style=""font-size:60px;"">+</div>","null","html-keyboard-response","215","318931","0.0-3.0-0.106","","fixation","","",""
"1321","b_a montage/ba_133.jpg","66","image-keyboard-response","216","320254","0.0-3.0-1.106","","","Update","b","true"
"null","<div style=""font-size:60px;"">+</div>","null","html-keyboard-response","217","320769","0.0-3.0-0.107","","fixation","","",""
"1812","b_a montage/ba_045.jpg","82","image-keyboard-response","218","322581","0.0-3.0-1.107","","","Repeat","r","true"
"null","<div style=""font-size:60px;"">+</div>","null","html-keyboard-response","219","323096","0.0-3.0-0.108","","fixation","","",""
"2395","a_b montage/ab_081.jpg","66","image-keyboard-response","220","325493","0.0-3.0-1.108","","","Repeat","l","false"
"null","<div style=""font-size:60px;"">+</div>","null","html-keyboard-response","221","325996","0.0-3.0-0.109","","fixation","","",""
"1633","a_b montage/ab_089.jpg","66","image-keyboard-response","222","327629","0.0-3.0-1.109","","","Repeat","l","false"
"null","<div style=""font-size:60px;"">+</div>","null","html-keyboard-response","223","328130","0.0-3.0-0.110","","fixation","","",""
"1185","a_b new/ab_005.jpg","78","image-keyboard-response","224","329317","0.0-3.0-1.110","","","Neither","n","true"
"null","<div style=""font-size:60px;"">+</div>","null","html-keyboard-response","225","329832","0.0-3.0-0.111","","fixation","","",""
"2227","b_a montage/ba_053.jpg","82","image-keyboard-response","226","332061","0.0-3.0-1.111","","","Repeat","r","true"
"null","<div style=""font-size:60px;"">+</div>","null","html-keyboard-response","227","332566","0.0-3.0-0.112","","fixation","","",""
"1629","b_a montage/ba_119.jpg","66","image-keyboard-response","228","334197","0.0-3.0-1.112","","","Update","b","true"
"null","<div style=""font-size:60px;"">+</div>","null","html-keyboard-response","229","334709","0.0-3.0-0.113","","fixation","","",""
"983","b_a montage/ba_171.jpg","78","image-keyboard-response","230","335694","0.0-3.0-1.113","","","Set_2_Only","r","false"
"null","<div style=""font-size:60px;"">+</div>","null","html-keyboard-response","231","336212","0.0-3.0-0.114","","fixation","","",""
"2409","b_a montage/ba_110.jpg","76","image-keyboard-response","232","338621","0.0-3.0-1.114","","","Update","b","false"
"null","<div style=""font-size:60px;"">+</div>","null","html-keyboard-response","233","339126","0.0-3.0-0.115","","fixation","","",""
"1471","b_a montage/ba_116.jpg","66","image-keyboard-response","234","340597","0.0-3.0-1.115","","","Update","b","true"
"null","<div style=""font-size:60px;"">+</div>","null","html-keyboard-response","235","341107","0.0-3.0-0.116","","fixation","","",""
"2065","a_b montage/ab_024.jpg","82","image-keyboard-response","236","343174","0.0-3.0-1.116","","","Set_1_Only","l","false"
"null","<div style=""font-size:60px;"">+</div>","null","html-keyboard-response","237","343688","0.0-3.0-0.117","","fixation","","",""
"2522","a_b montage/ab_026.jpg","76","image-keyboard-response","238","346214","0.0-3.0-1.117","","","Set_1_Only","l","true"
"null","<div style=""font-size:60px;"">+</div>","null","html-keyboard-response","239","346723","0.0-3.0-0.118","","fixation","","",""
"2327","b_a montage/ba_052.jpg","82","image-keyboard-response","240","349054","0.0-3.0-1.118","","","Repeat","r","true"
"null","<div style=""font-size:60px;"">+</div>","null","html-keyboard-response","241","349568","0.0-3.0-0.119","","fixation","","",""
"2162","a_b montage/ab_094.jpg","76","image-keyboard-response","242","351734","0.0-3.0-1.119","","","Repeat","l","true"
"null","<div style=""font-size:60px;"">+</div>","null","html-keyboard-response","243","352235","0.0-3.0-0.120","","fixation","","",""
"1832","b_a montage/ba_101.jpg","66","image-keyboard-response","244","354069","0.0-3.0-1.120","","","Update","b","true"
"null","<div style=""font-size:60px;"">+</div>","null","html-keyboard-response","245","354585","0.0-3.0-0.121","","fixation","","",""
"1176","b_a montage/ba_152.jpg","66","image-keyboard-response","246","355765","0.0-3.0-1.121","","","Update","b","true"
"null","<div style=""font-size:60px;"">+</div>","null","html-keyboard-response","247","356270","0.0-3.0-0.122","","fixation","","",""
"1223","a_b montage/ab_093.jpg","66","image-keyboard-response","248","357493","0.0-3.0-1.122","","","Repeat","l","false"
"null","<div style=""font-size:60px;"">+</div>","null","html-keyboard-response","249","358002","0.0-3.0-0.123","","fixation","","",""
"1140","a_b new/ab_007.jpg","78","image-keyboard-response","250","359143","0.0-3.0-1.123","","","Neither","n","true"
"null","<div style=""font-size:60px;"">+</div>","null","html-keyboard-response","251","359648","0.0-3.0-0.124","","fixation","","",""
"1147","b_a montage/ba_102.jpg","66","image-keyboard-response","252","360799","0.0-3.0-1.124","","","Update","b","true"
"null","<div style=""font-size:60px;"">+</div>","null","html-keyboard-response","253","361314","0.0-3.0-0.125","","fixation","","",""
"2602","a_b montage/ab_021.jpg","76","image-keyboard-response","254","363916","0.0-3.0-1.125","","","Set_1_Only","l","true"
"null","<div style=""font-size:60px;"">+</div>","null","html-keyboard-response","255","364432","0.0-3.0-0.126","","fixation","","",""
"1891","a_b montage/ab_065.jpg","76","image-keyboard-response","256","366325","0.0-3.0-1.126","","","Repeat","l","true"
"null","<div style=""font-size:60px;"">+</div>","null","html-keyboard-response","257","366830","0.0-3.0-0.127","","fixation","","",""
"1287","a_b new/ab_002.jpg","78","image-keyboard-response","258","368117","0.0-3.0-1.127","","","Neither","n","true"
"null","<div style=""font-size:60px;"">+</div>","null","html-keyboard-response","259","368631","0.0-3.0-0.128","","fixation","","",""
"1566","b_a montage/ba_057.jpg","82","image-keyboard-response","260","370197","0.0-3.0-1.128","","","Repeat","r","true"
"null","<div style=""font-size:60px;"">+</div>","null","html-keyboard-response","261","370713","0.0-3.0-0.129","","fixation","","",""
"1775","b_a montage/ba_167.jpg","82","image-keyboard-response","262","372488","0.0-3.0-1.129","","","Set_2_Only","r","true"
"null","<div style=""font-size:60px;"">+</div>","null","html-keyboard-response","263","372994","0.0-3.0-0.130","","fixation","","",""
"2704","b_a montage/ba_160.jpg","76","image-keyboard-response","264","375700","0.0-3.0-1.130","","","Update","b","false"
"null","<div style=""font-size:60px;"">+</div>","null","html-keyboard-response","265","376210","0.0-3.0-0.131","","fixation","","",""
"1842","b_a montage/ba_005.jpg","82","image-keyboard-response","266","378054","0.0-3.0-1.131","","","Set_1_Only","r","true"
"null","<div style=""font-size:60px;"">+</div>","null","html-keyboard-response","267","378560","0.0-3.0-0.132","","fixation","","",""
"2172","b_a montage/ba_140.jpg","66","image-keyboard-response","268","380732","0.0-3.0-1.132","","","Update","b","true"
"null","<div style=""font-size:60px;"">+</div>","null","html-keyboard-response","269","381241","0.0-3.0-0.133","","fixation","","",""
"1107","b_a new/ba_006.jpg","78","image-keyboard-response","270","382350","0.0-3.0-1.133","","","Neither","n","true"
"null","<div style=""font-size:60px;"">+</div>","null","html-keyboard-response","271","382857","0.0-3.0-0.134","","fixation","","",""
"1220","b_a montage/ba_123.jpg","66","image-keyboard-response","272","384077","0.0-3.0-1.134","","","Update","b","true"
"null","<div style=""font-size:60px;"">+</div>","null","html-keyboard-response","273","384589","0.0-3.0-0.135","","fixation","","",""
"1105","b_a montage/ba_033.jpg","66","image-keyboard-response","274","385694","0.0-3.0-1.135","","","Repeat","r","false"
"null","<div style=""font-size:60px;"">+</div>","null","html-keyboard-response","275","386205","0.0-3.0-0.136","","fixation","","",""
"1342","a_b montage/ab_077.jpg","66","image-keyboard-response","276","387549","0.0-3.0-1.136","","","Repeat","l","false"
"null","<div style=""font-size:60px;"">+</div>","null","html-keyboard-response","277","388054","0.0-3.0-0.137","","fixation","","",""
"2957","a_b montage/ab_032.jpg","76","image-keyboard-response","278","391013","0.0-3.0-1.137","","","Set_1_Only","l","true"
"null","<div style=""font-size:60px;"">+</div>","null","html-keyboard-response","279","391520","0.0-3.0-0.138","","fixation","","",""
"1365","b_a montage/ba_156.jpg","66","image-keyboard-response","280","392887","0.0-3.0-1.138","","","Update","b","true"
"null","<div style=""font-size:60px;"">+</div>","null","html-keyboard-response","281","393404","0.0-3.0-0.139","","fixation","","",""
"1335","a_b montage/ab_022.jpg","78","image-keyboard-response","282","394740","0.0-3.0-1.139","","","Set_1_Only","l","false"
"null","<div style=""font-size:60px;"">+</div>","null","html-keyboard-response","283","395252","0.0-3.0-0.140","","fixation","","",""
"1431","b_a montage/ba_114.jpg","66","image-keyboard-response","284","396685","0.0-3.0-1.140","","","Update","b","true"
"null","<div style=""font-size:60px;"">+</div>","null","html-keyboard-response","285","397189","0.0-3.0-0.141","","fixation","","",""
"870","b_a new/ba_013.jpg","78","image-keyboard-response","286","398061","0.0-3.0-1.141","","","Neither","n","true"
"null","<div style=""font-size:60px;"">+</div>","null","html-keyboard-response","287","398566","0.0-3.0-0.142","","fixation","","",""
"1327","a_b montage/ab_023.jpg","78","image-keyboard-response","288","399893","0.0-3.0-1.142","","","Set_1_Only","l","false"
"null","<div style=""font-size:60px;"">+</div>","null","html-keyboard-response","289","400400","0.0-3.0-0.143","","fixation","","",""
"2172","a_b montage/ab_087.jpg","76","image-keyboard-response","290","402572","0.0-3.0-1.143","","","Repeat","l","true"
"null","<div style=""font-size:60px;"">+</div>","null","html-keyboard-response","291","403082","0.0-3.0-0.144","","fixation","","",""
"1316","b_a montage/ba_155.jpg","66","image-keyboard-response","292","404398","0.0-3.0-1.144","","","Update","b","true"
"null","<div style=""font-size:60px;"">+</div>","null","html-keyboard-response","293","404914","0.0-3.0-0.145","","fixation","","",""
"1939","b_a montage/ba_002.jpg","82","image-keyboard-response","294","406853","0.0-3.0-1.145","","","Set_1_Only","r","true"
"null","<div style=""font-size:60px;"">+</div>","null","html-keyboard-response","295","407365","0.0-3.0-0.146","","fixation","","",""
"1696","b_a montage/ba_161.jpg","82","image-keyboard-response","296","409065","0.0-3.0-1.146","","","Set_2_Only","r","true"
"null","<div style=""font-size:60px;"">+</div>","null","html-keyboard-response","297","409579","0.0-3.0-0.147","","fixation","","",""
"3136","a_b montage/ab_029.jpg","82","image-keyboard-response","298","412717","0.0-3.0-1.147","","","Set_1_Only","l","false"
"null","<div style=""font-size:60px;"">+</div>","null","html-keyboard-response","299","413226","0.0-3.0-0.148","","fixation","","",""
"1506","a_b montage/ab_030.jpg","66","image-keyboard-response","300","414734","0.0-3.0-1.148","","","Set_1_Only","l","false"
"null","<div style=""font-size:60px;"">+</div>","null","html-keyboard-response","301","415243","0.0-3.0-0.149","","fixation","","",""
"962","b_a new/ba_004.jpg","78","image-keyboard-response","302","416205","0.0-3.0-1.149","","","Neither","n","true"
"null","<div style=""font-size:60px;"">+</div>","null","html-keyboard-response","303","416708","0.0-3.0-0.150","","fixation","","",""
"1536","b_a montage/ba_049.jpg","66","image-keyboard-response","304","418245","0.0-3.0-1.150","","","Repeat","r","false"
"null","<div style=""font-size:60px;"">+</div>","null","html-keyboard-response","305","418757","0.0-3.0-0.151","","fixation","","",""
"3079","a_b montage/ab_027.jpg","76","image-keyboard-response","306","421838","0.0-3.0-1.151","","","Set_1_Only","l","true"
"null","<div style=""font-size:60px;"">+</div>","null","html-keyboard-response","307","422354","0.0-3.0-0.152","","fixation","","",""
"2763","b_a montage/ba_008.jpg","82","image-keyboard-response","308","425117","0.0-3.0-1.152","","","Set_1_Only","r","true"
"null","<div style=""font-size:60px;"">+</div>","null","html-keyboard-response","309","425621","0.0-3.0-0.153","","fixation","","",""
"1456","b_a montage/ba_048.jpg","82","image-keyboard-response","310","427078","0.0-3.0-1.153","","","Repeat","r","true"
"null","<div style=""font-size:60px;"">+</div>","null","html-keyboard-response","311","427585","0.0-3.0-0.154","","fixation","","",""
"1042","a_b montage/ab_191.jpg","78","image-keyboard-response","312","428629","0.0-3.0-1.154","","","Set_2_Only","l","false"
"null","<div style=""font-size:60px;"">+</div>","null","html-keyboard-response","313","429136","0.0-3.0-0.155","","fixation","","",""
"885","a_b montage/ab_186.jpg","78","image-keyboard-response","314","430021","0.0-3.0-1.155","","","Set_2_Only","l","false"
"null","<div style=""font-size:60px;"">+</div>","null","html-keyboard-response","315","430537","0.0-3.0-0.156","","fixation","","",""
"1427","b_a montage/ba_157.jpg","66","image-keyboard-response","316","431966","0.0-3.0-1.156","","","Update","b","true"
"null","<div style=""font-size:60px;"">+</div>","null","html-keyboard-response","317","432470","0.0-3.0-0.157","","fixation","","",""
"780","a_b montage/ab_072.jpg","66","image-keyboard-response","318","433254","0.0-3.0-1.157","","","Repeat","l","false"
"null","<div style=""font-size:60px;"">+</div>","null","html-keyboard-response","319","433769","0.0-3.0-0.158","","fixation","","",""
"1189","b_a montage/ba_173.jpg","66","image-keyboard-response","320","434958","0.0-3.0-1.158","","","Set_2_Only","r","false"
"null","<div style=""font-size:60px;"">+</div>","null","html-keyboard-response","321","435470","0.0-3.0-0.159","","fixation","","",""
"3144","a_b montage/ab_187.jpg","76","image-keyboard-response","322","438614","0.0-3.0-1.159","","","Set_2_Only","l","true"
"null","<div style=""font-size:60px;"">+</div>","null","html-keyboard-response","323","439115","0.0-3.0-0.160","","fixation","","",""
"1736","b_a montage/ba_016.jpg","82","image-keyboard-response","324","440853","0.0-3.0-1.160","","","Set_1_Only","r","true"
"null","<div style=""font-size:60px;"">+</div>","null","html-keyboard-response","325","441365","0.0-3.0-0.161","","fixation","","",""
"2214","a_b montage/ab_095.jpg","76","image-keyboard-response","326","443581","0.0-3.0-1.161","","","Repeat","l","true"
"null","<div style=""font-size:60px;"">+</div>","null","html-keyboard-response","327","444096","0.0-3.0-0.162","","fixation","","",""
"1814","a_b montage/ab_178.jpg","76","image-keyboard-response","328","445910","0.0-3.0-1.162","","","Set_2_Only","l","true"
"null","<div style=""font-size:60px;"">+</div>","null","html-keyboard-response","329","446413","0.0-3.0-0.163","","fixation","","",""
"1761","b_a new/ba_014.jpg","78","image-keyboard-response","330","448174","0.0-3.0-1.163","","","Neither","n","true"
"null","<div style=""font-size:60px;"">+</div>","null","html-keyboard-response","331","448677","0.0-3.0-0.164","","fixation","","",""
"4516","b_a montage/ba_126.jpg","82","image-keyboard-response","332","453197","0.0-3.0-1.164","","","Update","b","false"
"null","<div style=""font-size:60px;"">+</div>","null","html-keyboard-response","333","453711","0.0-3.0-0.165","","fixation","","",""
"1398","b_a montage/ba_134.jpg","82","image-keyboard-response","334","455109","0.0-3.0-1.165","","","Update","b","false"
"null","<div style=""font-size:60px;"">+</div>","null","html-keyboard-response","335","455625","0.0-3.0-0.166","","fixation","","",""
"1404","b_a montage/ba_162.jpg","82","image-keyboard-response","336","457029","0.0-3.0-1.166","","","Set_2_Only","r","true"
"null","<div style=""font-size:60px;"">+</div>","null","html-keyboard-response","337","457543","0.0-3.0-0.167","","fixation","","",""
"1295","b_a montage/ba_003.jpg","82","image-keyboard-response","338","458838","0.0-3.0-1.167","","","Set_1_Only","r","true"
"null","<div style=""font-size:60px;"">+</div>","null","html-keyboard-response","339","459340","0.0-3.0-0.168","","fixation","","",""
"1719","b_a montage/ba_007.jpg","66","image-keyboard-response","340","461061","0.0-3.0-1.168","","","Set_1_Only","r","false"
"null","<div style=""font-size:60px;"">+</div>","null","html-keyboard-response","341","461572","0.0-3.0-0.169","","fixation","","",""
"1183","b_a montage/ba_063.jpg","82","image-keyboard-response","342","462757","0.0-3.0-1.169","","","Repeat","r","true"
"null","<div style=""font-size:60px;"">+</div>","null","html-keyboard-response","343","463274","0.0-3.0-0.170","","fixation","","",""
"1691","b_a montage/ba_132.jpg","76","image-keyboard-response","344","464966","0.0-3.0-1.170","","","Update","b","false"
"null","<div style=""font-size:60px;"">+</div>","null","html-keyboard-response","345","465472","0.0-3.0-0.171","","fixation","","",""
"1251","a_b montage/ab_096.jpg","76","image-keyboard-response","346","466725","0.0-3.0-1.171","","","Repeat","l","true"
"null","<div style=""font-size:60px;"">+</div>","null","html-keyboard-response","347","467239","0.0-3.0-0.172","","fixation","","",""
"1486","b_a montage/ba_014.jpg","82","image-keyboard-response","348","468727","0.0-3.0-1.172","","","Set_1_Only","r","true"
"null","<div style=""font-size:60px;"">+</div>","null","html-keyboard-response","349","469237","0.0-3.0-0.173","","fixation","","",""
"1799","b_a montage/ba_105.jpg","66","image-keyboard-response","350","471038","0.0-3.0-1.173","","","Update","b","true"
"null","<div style=""font-size:60px;"">+</div>","null","html-keyboard-response","351","471551","0.0-3.0-0.174","","fixation","","",""
"1076","b_a montage/ba_054.jpg","66","image-keyboard-response","352","472629","0.0-3.0-1.174","","","Repeat","r","false"
"null","<div style=""font-size:60px;"">+</div>","null","html-keyboard-response","353","473134","0.0-3.0-0.175","","fixation","","",""
"1197","b_a montage/ba_042.jpg","82","image-keyboard-response","354","474333","0.0-3.0-1.175","","","Repeat","r","true"
"null","<div style=""font-size:60px;"">+</div>","null","html-keyboard-response","355","474836","0.0-3.0-0.176","","fixation","","",""
"1200","a_b montage/ab_074.jpg","76","image-keyboard-response","356","476036","0.0-3.0-1.176","","","Repeat","l","true"
"null","<div style=""font-size:60px;"">+</div>","null","html-keyboard-response","357","476553","0.0-3.0-0.177","","fixation","","",""
"1956","a_b montage/ab_083.jpg","82","image-keyboard-response","358","478509","0.0-3.0-1.177","","","Repeat","l","false"
"null","<div style=""font-size:60px;"">+</div>","null","html-keyboard-response","359","479017","0.0-3.0-0.178","","fixation","","",""
"2386","b_a montage/ba_144.jpg","76","image-keyboard-response","360","481405","0.0-3.0-1.178","","","Update","b","false"
"null","<div style=""font-size:60px;"">+</div>","null","html-keyboard-response","361","481918","0.0-3.0-0.179","","fixation","","",""
"1893","a_b montage/ab_078.jpg","76","image-keyboard-response","362","483813","0.0-3.0-1.179","","","Repeat","l","true"
"null","<div style=""font-size:60px;"">+</div>","null","html-keyboard-response","363","484317","0.0-3.0-0.180","","fixation","","",""
"1390","a_b montage/ab_184.jpg","76","image-keyboard-response","364","485709","0.0-3.0-1.180","","","Set_2_Only","l","true"
"null","<div style=""font-size:60px;"">+</div>","null","html-keyboard-response","365","486212","0.0-3.0-0.181","","fixation","","",""
"1031","b_a montage/ba_121.jpg","76","image-keyboard-response","366","487247","0.0-3.0-1.181","","","Update","b","false"
"null","<div style=""font-size:60px;"">+</div>","null","html-keyboard-response","367","487761","0.0-3.0-0.182","","fixation","","",""
"2451","b_a montage/ba_001.jpg","82","image-keyboard-response","368","490214","0.0-3.0-1.182","","","Set_1_Only","r","true"
"null","<div style=""font-size:60px;"">+</div>","null","html-keyboard-response","369","490729","0.0-3.0-0.183","","fixation","","",""
"892","b_a montage/ba_106.jpg","76","image-keyboard-response","370","491621","0.0-3.0-1.183","","","Update","b","false"
"null","<div style=""font-size:60px;"">+</div>","null","html-keyboard-response","371","492128","0.0-3.0-0.184","","fixation","","",""
"1346","b_a montage/ba_122.jpg","76","image-keyboard-response","372","493478","0.0-3.0-1.184","","","Update","b","false"
"null","<div style=""font-size:60px;"">+</div>","null","html-keyboard-response","373","493992","0.0-3.0-0.185","","fixation","","",""
"939","b_a montage/ba_064.jpg","76","image-keyboard-response","374","494933","0.0-3.0-1.185","","","Repeat","r","false"
"null","<div style=""font-size:60px;"">+</div>","null","html-keyboard-response","375","495444","0.0-3.0-0.186","","fixation","","",""
"1426","b_a montage/ba_059.jpg","66","image-keyboard-response","376","496870","0.0-3.0-1.186","","","Repeat","r","false"
"null","<div style=""font-size:60px;"">+</div>","null","html-keyboard-response","377","497375","0.0-3.0-0.187","","fixation","","",""
"1587","b_a montage/ba_175.jpg","76","image-keyboard-response","378","498964","0.0-3.0-1.187","","","Set_2_Only","r","false"
"null","<div style=""font-size:60px;"">+</div>","null","html-keyboard-response","379","499476","0.0-3.0-0.188","","fixation","","",""
"1729","b_a montage/ba_169.jpg","82","image-keyboard-response","380","501205","0.0-3.0-1.188","","","Set_2_Only","r","true"
"null","<div style=""font-size:60px;"">+</div>","null","html-keyboard-response","381","501723","0.0-3.0-0.189","","fixation","","",""
"1774","b_a montage/ba_151.jpg","66","image-keyboard-response","382","503499","0.0-3.0-1.189","","","Update","b","true"
"null","<div style=""font-size:60px;"">+</div>","null","html-keyboard-response","383","504006","0.0-3.0-0.190","","fixation","","",""
"1134","b_a montage/ba_010.jpg","82","image-keyboard-response","384","505140","0.0-3.0-1.190","","","Set_1_Only","r","true"
"null","<div style=""font-size:60px;"">+</div>","null","html-keyboard-response","385","505656","0.0-3.0-0.191","","fixation","","",""
"1790","b_a montage/ba_164.jpg","78","image-keyboard-response","386","507446","0.0-3.0-1.191","","","Set_2_Only","r","false"
"null","<div style=""font-size:60px;"">+</div>","null","html-keyboard-response","387","507954","0.0-3.0-0.192","","fixation","","",""
"1625","a_b montage/ab_070.jpg","76","image-keyboard-response","388","509581","0.0-3.0-1.192","","","Repeat","l","true"
"null","<div style=""font-size:60px;"">+</div>","null","html-keyboard-response","389","510084","0.0-3.0-0.193","","fixation","","",""
"1616","b_a montage/ba_044.jpg","82","image-keyboard-response","390","511702","0.0-3.0-1.193","","","Repeat","r","true"
"null","<div style=""font-size:60px;"">+</div>","null","html-keyboard-response","391","512218","0.0-3.0-0.194","","fixation","","",""
"1128","b_a montage/ba_035.jpg","82","image-keyboard-response","392","513348","0.0-3.0-1.194","","","Repeat","r","true"
"null","<div style=""font-size:60px;"">+</div>","null","html-keyboard-response","393","513851","0.0-3.0-0.195","","fixation","","",""
"1090","b_a montage/ba_040.jpg","66","image-keyboard-response","394","514941","0.0-3.0-1.195","","","Repeat","r","false"
"null","<div style=""font-size:60px;"">+</div>","null","html-keyboard-response","395","515451","0.0-3.0-0.196","","fixation","","",""
"1090","b_a montage/ba_124.jpg","82","image-keyboard-response","396","516541","0.0-3.0-1.196","","","Update","b","false"
"null","<div style=""font-size:60px;"">+</div>","null","html-keyboard-response","397","517052","0.0-3.0-0.197","","fixation","","",""
"1216","a_b montage/ab_025.jpg","76","image-keyboard-response","398","518270","0.0-3.0-1.197","","","Set_1_Only","l","true"
"null","<div style=""font-size:60px;"">+</div>","null","html-keyboard-response","399","518784","0.0-3.0-0.198","","fixation","","",""
"1918","b_a montage/ba_165.jpg","66","image-keyboard-response","400","520704","0.0-3.0-1.198","","","Set_2_Only","r","false"
"null","<div style=""font-size:60px;"">+</div>","null","html-keyboard-response","401","521214","0.0-3.0-0.199","","fixation","","",""
"1071","b_a montage/ba_138.jpg","66","image-keyboard-response","402","522285","0.0-3.0-1.199","","","Update","b","true"
"null","<div style=""font-size:60px;"">+</div>","null","html-keyboard-response","403","522799","0.0-3.0-0.200","","fixation","","",""
"1205","a_b montage/ab_028.jpg","78","image-keyboard-response","404","524006","0.0-3.0-1.200","","","Set_1_Only","l","false"
"null","<div style=""font-size:60px;"">+</div>","null","html-keyboard-response","405","524514","0.0-3.0-0.201","","fixation","","",""
"1945","a_b montage/ab_076.jpg","76","image-keyboard-response","406","526461","0.0-3.0-1.201","","","Repeat","l","true"
"null","<div style=""font-size:60px;"">+</div>","null","html-keyboard-response","407","526979","0.0-3.0-0.202","","fixation","","",""
"1329","b_a new/ba_012.jpg","76","image-keyboard-response","408","528310","0.0-3.0-1.202","","","Neither","n","false"
"null","<div style=""font-size:60px;"">+</div>","null","html-keyboard-response","409","528811","0.0-3.0-0.203","","fixation","","",""
"1162","a_b montage/ab_068.jpg","76","image-keyboard-response","410","529973","0.0-3.0-1.203","","","Repeat","l","true"
"null","<div style=""font-size:60px;"">+</div>","null","html-keyboard-response","411","530478","0.0-3.0-0.204","","fixation","","",""
"2229","b_a montage/ba_115.jpg","82","image-keyboard-response","412","532709","0.0-3.0-1.204","","","Update","b","false"
"null","<div style=""font-size:60px;"">+</div>","null","html-keyboard-response","413","533210","0.0-3.0-0.205","","fixation","","",""
"2096","b_a montage/ba_118.jpg","78","image-keyboard-response","414","535308","0.0-3.0-1.205","","","Update","b","false"
"null","<div style=""font-size:60px;"">+</div>","null","html-keyboard-response","415","535824","0.0-3.0-0.206","","fixation","","",""
"2876","a_b montage/ab_189.jpg","76","image-keyboard-response","416","538700","0.0-3.0-1.206","","","Set_2_Only","l","true"
"null","<div style=""font-size:60px;"">+</div>","null","html-keyboard-response","417","539209","0.0-3.0-0.207","","fixation","","",""
"1299","b_a new/ba_009.jpg","78","image-keyboard-response","418","540509","0.0-3.0-1.207","","","Neither","n","true"
