"rt","stimulus","key_press","trial_type","trial_index","time_elapsed","internal_node_id","responses","test_part","stim_type","correct_response","correct"
"3056","Press any key to begin.","67","html-keyboard-response","0","3063","0.0-0.0","","","","",""
"44095","","","survey-text","1","47165","0.0-1.0","{""Q0"":""\""Set1128617\"""",""Q1"":""""}","","","",""
"26726","<p>In this experiment you will see a series of everyday objects presented one at a time at the center of the screen. Each image will be presented twice. </p><p>The first time you see the image, press the N key to indicate that it is a NEW image. The second time you see the image, press the O key to indicate that it is an OLD image.</p><div style='width: 700px;'></div><p>Press any key to begin.</p>","67","html-keyboard-response","2","73910","0.0-2.0","","","","",""
"null","<div style=""font-size:60px;"">+</div>","null","html-keyboard-response","3","76447","0.0-3.0-0.0","","fixation","","",""
"2843","Set1/063a.jpg","78","image-keyboard-response","4","79301","0.0-3.0-1.0","","","Repeat","n","true"
"null","<div style=""font-size:60px;"">+</div>","null","html-keyboard-response","5","79823","0.0-3.0-0.1","","fixation","","",""
"2256","Set1/064a.jpg","78","image-keyboard-response","6","82084","0.0-3.0-1.1","","","Repeat","n","true"
"null","<div style=""font-size:60px;"">+</div>","null","html-keyboard-response","7","82593","0.0-3.0-0.2","","fixation","","",""
"1239","Set1/047a.jpg","78","image-keyboard-response","8","83838","0.0-3.0-1.2","","","Repeat","n","true"
"null","<div style=""font-size:60px;"">+</div>","null","html-keyboard-response","9","84372","0.0-3.0-0.3","","fixation","","",""
"1765","Set1/025a.jpg","78","image-keyboard-response","10","86143","0.0-3.0-1.3","","","Set_1_Only","n","true"
"null","<div style=""font-size:60px;"">+</div>","null","html-keyboard-response","11","86664","0.0-3.0-0.4","","fixation","","",""
"1225","Set1/146a.jpg","78","image-keyboard-response","12","87894","0.0-3.0-1.4","","","Update","n","true"
"null","<div style=""font-size:60px;"">+</div>","null","html-keyboard-response","13","88412","0.0-3.0-0.5","","fixation","","",""
"1151","Set1/020a.jpg","78","image-keyboard-response","14","89569","0.0-3.0-1.5","","","Set_1_Only","n","true"
"null","<div style=""font-size:60px;"">+</div>","null","html-keyboard-response","15","90086","0.0-3.0-0.6","","fixation","","",""
"1356","Set1/120a.jpg","78","image-keyboard-response","16","91449","0.0-3.0-1.6","","","Update","n","true"
"null","<div style=""font-size:60px;"">+</div>","null","html-keyboard-response","17","91976","0.0-3.0-0.7","","fixation","","",""
"1108","Set1/148a.jpg","78","image-keyboard-response","18","93091","0.0-3.0-1.7","","","Update","n","true"
"null","<div style=""font-size:60px;"">+</div>","null","html-keyboard-response","19","93607","0.0-3.0-0.8","","fixation","","",""
"1160","Set1/028a.jpg","78","image-keyboard-response","20","94775","0.0-3.0-1.8","","","Set_1_Only","n","true"
"null","<div style=""font-size:60px;"">+</div>","null","html-keyboard-response","21","95308","0.0-3.0-0.9","","fixation","","",""
"1345","Set1/071a.jpg","78","image-keyboard-response","22","96660","0.0-3.0-1.9","","","Repeat","n","true"
"null","<div style=""font-size:60px;"">+</div>","null","html-keyboard-response","23","97184","0.0-3.0-0.10","","fixation","","",""
"1055","Set1/030a.jpg","78","image-keyboard-response","24","98248","0.0-3.0-1.10","","","Set_1_Only","n","true"
"null","<div style=""font-size:60px;"">+</div>","null","html-keyboard-response","25","98761","0.0-3.0-0.11","","fixation","","",""
"1242","Set1/037a.jpg","78","image-keyboard-response","26","100014","0.0-3.0-1.11","","","Repeat","n","true"
"null","<div style=""font-size:60px;"">+</div>","null","html-keyboard-response","27","100532","0.0-3.0-0.12","","fixation","","",""
"1053","Set1/120a.jpg","78","image-keyboard-response","28","101590","0.0-3.0-1.12","","","Update","o","false"
"null","<div style=""font-size:60px;"">+</div>","null","html-keyboard-response","29","102115","0.0-3.0-0.13","","fixation","","",""
"966","Set1/005a.jpg","78","image-keyboard-response","30","103090","0.0-3.0-1.13","","","Set_1_Only","n","true"
"null","<div style=""font-size:60px;"">+</div>","null","html-keyboard-response","31","103606","0.0-3.0-0.14","","fixation","","",""
"1075","Set1/079a.jpg","78","image-keyboard-response","32","104687","0.0-3.0-1.14","","","Repeat","n","true"
"null","<div style=""font-size:60px;"">+</div>","null","html-keyboard-response","33","105200","0.0-3.0-0.15","","fixation","","",""
"1026","Set1/136a.jpg","78","image-keyboard-response","34","106235","0.0-3.0-1.15","","","Update","n","true"
"null","<div style=""font-size:60px;"">+</div>","null","html-keyboard-response","35","106764","0.0-3.0-0.16","","fixation","","",""
"1057","Set1/133a.jpg","78","image-keyboard-response","36","107828","0.0-3.0-1.16","","","Update","n","true"
"null","<div style=""font-size:60px;"">+</div>","null","html-keyboard-response","37","108368","0.0-3.0-0.17","","fixation","","",""
"1127","Set1/128a.jpg","78","image-keyboard-response","38","109507","0.0-3.0-1.17","","","Update","n","true"
"null","<div style=""font-size:60px;"">+</div>","null","html-keyboard-response","39","110015","0.0-3.0-0.18","","fixation","","",""
"1045","Set1/054a.jpg","78","image-keyboard-response","40","111069","0.0-3.0-1.18","","","Repeat","n","true"
"null","<div style=""font-size:60px;"">+</div>","null","html-keyboard-response","41","111594","0.0-3.0-0.19","","fixation","","",""
"1119","Set1/108a.jpg","78","image-keyboard-response","42","112721","0.0-3.0-1.19","","","Update","n","true"
"null","<div style=""font-size:60px;"">+</div>","null","html-keyboard-response","43","113245","0.0-3.0-0.20","","fixation","","",""
"1281","Set1/050a.jpg","78","image-keyboard-response","44","114534","0.0-3.0-1.20","","","Repeat","n","true"
"null","<div style=""font-size:60px;"">+</div>","null","html-keyboard-response","45","115067","0.0-3.0-0.21","","fixation","","",""
"1151","Set1/140a.jpg","78","image-keyboard-response","46","116227","0.0-3.0-1.21","","","Update","n","true"
"null","<div style=""font-size:60px;"">+</div>","null","html-keyboard-response","47","116754","0.0-3.0-0.22","","fixation","","",""
"886","Set1/051a.jpg","78","image-keyboard-response","48","117649","0.0-3.0-1.22","","","Repeat","n","true"
"null","<div style=""font-size:60px;"">+</div>","null","html-keyboard-response","49","118168","0.0-3.0-0.23","","fixation","","",""
"2146","Set1/063a.jpg","79","image-keyboard-response","50","120319","0.0-3.0-1.23","","","Repeat","o","true"
"null","<div style=""font-size:60px;"">+</div>","null","html-keyboard-response","51","120842","0.0-3.0-0.24","","fixation","","",""
"1634","Set1/006a.jpg","78","image-keyboard-response","52","122482","0.0-3.0-1.24","","","Set_1_Only","n","true"
"null","<div style=""font-size:60px;"">+</div>","null","html-keyboard-response","53","123002","0.0-3.0-0.25","","fixation","","",""
"2475","Set1/158a.jpg","78","image-keyboard-response","54","125485","0.0-3.0-1.25","","","Update","n","true"
"null","<div style=""font-size:60px;"">+</div>","null","html-keyboard-response","55","126001","0.0-3.0-0.26","","fixation","","",""
"1328","Set1/020a.jpg","79","image-keyboard-response","56","127335","0.0-3.0-1.26","","","Set_1_Only","o","true"
"null","<div style=""font-size:60px;"">+</div>","null","html-keyboard-response","57","127859","0.0-3.0-0.27","","fixation","","",""
"1402","Set1/082a.jpg","78","image-keyboard-response","58","129270","0.0-3.0-1.27","","","Repeat","n","true"
"null","<div style=""font-size:60px;"">+</div>","null","html-keyboard-response","59","129777","0.0-3.0-0.28","","fixation","","",""
"1228","Set1/107a.jpg","78","image-keyboard-response","60","131013","0.0-3.0-1.28","","","Update","n","true"
"null","<div style=""font-size:60px;"">+</div>","null","html-keyboard-response","61","131527","0.0-3.0-0.29","","fixation","","",""
"1205","Set1/121a.jpg","78","image-keyboard-response","62","132742","0.0-3.0-1.29","","","Update","n","true"
"null","<div style=""font-size:60px;"">+</div>","null","html-keyboard-response","63","133263","0.0-3.0-0.30","","fixation","","",""
"1444","Set1/085a.jpg","78","image-keyboard-response","64","134717","0.0-3.0-1.30","","","Repeat","n","true"
"null","<div style=""font-size:60px;"">+</div>","null","html-keyboard-response","65","135249","0.0-3.0-0.31","","fixation","","",""
"1197","Set1/136a.jpg","79","image-keyboard-response","66","136452","0.0-3.0-1.31","","","Update","o","true"
"null","<div style=""font-size:60px;"">+</div>","null","html-keyboard-response","67","136983","0.0-3.0-0.32","","fixation","","",""
"2254","Set1/049a.jpg","78","image-keyboard-response","68","139248","0.0-3.0-1.32","","","Repeat","n","true"
"null","<div style=""font-size:60px;"">+</div>","null","html-keyboard-response","69","139770","0.0-3.0-0.33","","fixation","","",""
"1275","Set1/133a.jpg","79","image-keyboard-response","70","141051","0.0-3.0-1.33","","","Update","o","true"
"null","<div style=""font-size:60px;"">+</div>","null","html-keyboard-response","71","141573","0.0-3.0-0.34","","fixation","","",""
"1303","Set1/093a.jpg","78","image-keyboard-response","72","142886","0.0-3.0-1.34","","","Repeat","n","true"
"null","<div style=""font-size:60px;"">+</div>","null","html-keyboard-response","73","143398","0.0-3.0-0.35","","fixation","","",""
"1254","Set1/064a.jpg","79","image-keyboard-response","74","144658","0.0-3.0-1.35","","","Repeat","o","true"
"null","<div style=""font-size:60px;"">+</div>","null","html-keyboard-response","75","145183","0.0-3.0-0.36","","fixation","","",""
"2843","Set1/005a.jpg","79","image-keyboard-response","76","148033","0.0-3.0-1.36","","","Set_1_Only","o","true"
"null","<div style=""font-size:60px;"">+</div>","null","html-keyboard-response","77","148569","0.0-3.0-0.37","","fixation","","",""
"1203","Set1/128a.jpg","79","image-keyboard-response","78","149783","0.0-3.0-1.37","","","Update","o","true"
"null","<div style=""font-size:60px;"">+</div>","null","html-keyboard-response","79","150298","0.0-3.0-0.38","","fixation","","",""
"1376","Set1/044a.jpg","78","image-keyboard-response","80","151682","0.0-3.0-1.38","","","Repeat","n","true"
"null","<div style=""font-size:60px;"">+</div>","null","html-keyboard-response","81","152188","0.0-3.0-0.39","","fixation","","",""
"1688","Set1/037a.jpg","78","image-keyboard-response","82","153890","0.0-3.0-1.39","","","Repeat","o","false"
"null","<div style=""font-size:60px;"">+</div>","null","html-keyboard-response","83","154412","0.0-3.0-0.40","","fixation","","",""
"1292","Set1/088a.jpg","78","image-keyboard-response","84","155714","0.0-3.0-1.40","","","Repeat","n","true"
"null","<div style=""font-size:60px;"">+</div>","null","html-keyboard-response","85","156230","0.0-3.0-0.41","","fixation","","",""
"1534","Set1/106a.jpg","78","image-keyboard-response","86","157772","0.0-3.0-1.41","","","Update","n","true"
"null","<div style=""font-size:60px;"">+</div>","null","html-keyboard-response","87","158281","0.0-3.0-0.42","","fixation","","",""
"1919","Set1/031a.jpg","78","image-keyboard-response","88","160208","0.0-3.0-1.42","","","Set_1_Only","n","true"
"null","<div style=""font-size:60px;"">+</div>","null","html-keyboard-response","89","160715","0.0-3.0-0.43","","fixation","","",""
"1391","Set1/160a.jpg","78","image-keyboard-response","90","162115","0.0-3.0-1.43","","","Update","n","true"
"null","<div style=""font-size:60px;"">+</div>","null","html-keyboard-response","91","162621","0.0-3.0-0.44","","fixation","","",""
"1400","Set1/025a.jpg","79","image-keyboard-response","92","164034","0.0-3.0-1.44","","","Set_1_Only","o","true"
"null","<div style=""font-size:60px;"">+</div>","null","html-keyboard-response","93","164559","0.0-3.0-0.45","","fixation","","",""
"1336","Set1/088a.jpg","78","image-keyboard-response","94","165901","0.0-3.0-1.45","","","Repeat","o","false"
"null","<div style=""font-size:60px;"">+</div>","null","html-keyboard-response","95","166421","0.0-3.0-0.46","","fixation","","",""
"2150","Set1/093a.jpg","78","image-keyboard-response","96","168580","0.0-3.0-1.46","","","Repeat","o","false"
"null","<div style=""font-size:60px;"">+</div>","null","html-keyboard-response","97","169098","0.0-3.0-0.47","","fixation","","",""
"1173","Set1/054a.jpg","79","image-keyboard-response","98","170277","0.0-3.0-1.47","","","Repeat","o","true"
"null","<div style=""font-size:60px;"">+</div>","null","html-keyboard-response","99","170786","0.0-3.0-0.48","","fixation","","",""
"1583","Set1/105a.jpg","78","image-keyboard-response","100","172378","0.0-3.0-1.48","","","Update","n","true"
"null","<div style=""font-size:60px;"">+</div>","null","html-keyboard-response","101","172913","0.0-3.0-0.49","","fixation","","",""
"2225","Set1/045a.jpg","78","image-keyboard-response","102","175146","0.0-3.0-1.49","","","Repeat","n","true"
"null","<div style=""font-size:60px;"">+</div>","null","html-keyboard-response","103","175668","0.0-3.0-0.50","","fixation","","",""
"1296","Set1/006a.jpg","79","image-keyboard-response","104","176975","0.0-3.0-1.50","","","Set_1_Only","o","true"
"null","<div style=""font-size:60px;"">+</div>","null","html-keyboard-response","105","177481","0.0-3.0-0.51","","fixation","","",""
"1511","Set1/140a.jpg","79","image-keyboard-response","106","178996","0.0-3.0-1.51","","","Update","o","true"
"null","<div style=""font-size:60px;"">+</div>","null","html-keyboard-response","107","179509","0.0-3.0-0.52","","fixation","","",""
"1373","Set1/027a.jpg","78","image-keyboard-response","108","180894","0.0-3.0-1.52","","","Set_1_Only","n","true"
"null","<div style=""font-size:60px;"">+</div>","null","html-keyboard-response","109","181407","0.0-3.0-0.53","","fixation","","",""
"1266","Set1/049a.jpg","79","image-keyboard-response","110","182684","0.0-3.0-1.53","","","Repeat","o","true"
"null","<div style=""font-size:60px;"">+</div>","null","html-keyboard-response","111","183206","0.0-3.0-0.54","","fixation","","",""
"1419","Set1/051a.jpg","79","image-keyboard-response","112","184631","0.0-3.0-1.54","","","Repeat","o","true"
"null","<div style=""font-size:60px;"">+</div>","null","html-keyboard-response","113","185156","0.0-3.0-0.55","","fixation","","",""
"1051","Set1/028a.jpg","79","image-keyboard-response","114","186217","0.0-3.0-1.55","","","Set_1_Only","o","true"
"null","<div style=""font-size:60px;"">+</div>","null","html-keyboard-response","115","186748","0.0-3.0-0.56","","fixation","","",""
"1093","Set1/047a.jpg","79","image-keyboard-response","116","187852","0.0-3.0-1.56","","","Repeat","o","true"
"null","<div style=""font-size:60px;"">+</div>","null","html-keyboard-response","117","188386","0.0-3.0-0.57","","fixation","","",""
"1073","Set1/071a.jpg","79","image-keyboard-response","118","189465","0.0-3.0-1.57","","","Repeat","o","true"
"null","<div style=""font-size:60px;"">+</div>","null","html-keyboard-response","119","189987","0.0-3.0-0.58","","fixation","","",""
"1066","Set1/108a.jpg","79","image-keyboard-response","120","191058","0.0-3.0-1.58","","","Update","o","true"
"null","<div style=""font-size:60px;"">+</div>","null","html-keyboard-response","121","191582","0.0-3.0-0.59","","fixation","","",""
"1034","Set1/027a.jpg","79","image-keyboard-response","122","192622","0.0-3.0-1.59","","","Set_1_Only","o","true"
"null","<div style=""font-size:60px;"">+</div>","null","html-keyboard-response","123","193153","0.0-3.0-0.60","","fixation","","",""
"1130","Set1/044a.jpg","79","image-keyboard-response","124","194295","0.0-3.0-1.60","","","Repeat","o","true"
"null","<div style=""font-size:60px;"">+</div>","null","html-keyboard-response","125","194810","0.0-3.0-0.61","","fixation","","",""
"1445","Set1/045a.jpg","79","image-keyboard-response","126","196266","0.0-3.0-1.61","","","Repeat","o","true"
"null","<div style=""font-size:60px;"">+</div>","null","html-keyboard-response","127","196779","0.0-3.0-0.62","","fixation","","",""
"2160","Set1/134a.jpg","79","image-keyboard-response","128","198945","0.0-3.0-1.62","","","Update","n","false"
"null","<div style=""font-size:60px;"">+</div>","null","html-keyboard-response","129","199460","0.0-3.0-0.63","","fixation","","",""
"1915","Set1/158a.jpg","79","image-keyboard-response","130","201385","0.0-3.0-1.63","","","Update","o","true"
"null","<div style=""font-size:60px;"">+</div>","null","html-keyboard-response","131","201900","0.0-3.0-0.64","","fixation","","",""
"1057","Set1/106a.jpg","79","image-keyboard-response","132","202961","0.0-3.0-1.64","","","Update","o","true"
"null","<div style=""font-size:60px;"">+</div>","null","html-keyboard-response","133","203481","0.0-3.0-0.65","","fixation","","",""
"1543","Set1/119a.jpg","78","image-keyboard-response","134","205033","0.0-3.0-1.65","","","Update","n","true"
"null","<div style=""font-size:60px;"">+</div>","null","html-keyboard-response","135","205551","0.0-3.0-0.66","","fixation","","",""
"1126","Set1/105a.jpg","79","image-keyboard-response","136","206689","0.0-3.0-1.66","","","Update","o","true"
"null","<div style=""font-size:60px;"">+</div>","null","html-keyboard-response","137","207210","0.0-3.0-0.67","","fixation","","",""
"1339","Set1/119a.jpg","79","image-keyboard-response","138","208555","0.0-3.0-1.67","","","Update","o","true"
"null","<div style=""font-size:60px;"">+</div>","null","html-keyboard-response","139","209071","0.0-3.0-0.68","","fixation","","",""
"1252","Set1/148a.jpg","79","image-keyboard-response","140","210330","0.0-3.0-1.68","","","Update","o","true"
"null","<div style=""font-size:60px;"">+</div>","null","html-keyboard-response","141","210851","0.0-3.0-0.69","","fixation","","",""
"1367","Set1/031a.jpg","79","image-keyboard-response","142","212227","0.0-3.0-1.69","","","Set_1_Only","o","true"
"null","<div style=""font-size:60px;"">+</div>","null","html-keyboard-response","143","212754","0.0-3.0-0.70","","fixation","","",""
"1193","Set1/050a.jpg","79","image-keyboard-response","144","213961","0.0-3.0-1.70","","","Repeat","o","true"
"null","<div style=""font-size:60px;"">+</div>","null","html-keyboard-response","145","214479","0.0-3.0-0.71","","fixation","","",""
"1352","Set1/082a.jpg","79","image-keyboard-response","146","215845","0.0-3.0-1.71","","","Repeat","o","true"
"null","<div style=""font-size:60px;"">+</div>","null","html-keyboard-response","147","216373","0.0-3.0-0.72","","fixation","","",""
"1571","Set1/085a.jpg","79","image-keyboard-response","148","217953","0.0-3.0-1.72","","","Repeat","o","true"
"null","<div style=""font-size:60px;"">+</div>","null","html-keyboard-response","149","218469","0.0-3.0-0.73","","fixation","","",""
"2007","Set1/030a.jpg","78","image-keyboard-response","150","220487","0.0-3.0-1.73","","","Set_1_Only","o","false"
"null","<div style=""font-size:60px;"">+</div>","null","html-keyboard-response","151","221009","0.0-3.0-0.74","","fixation","","",""
"1757","Set1/160a.jpg","78","image-keyboard-response","152","222779","0.0-3.0-1.74","","","Update","o","false"
"null","<div style=""font-size:60px;"">+</div>","null","html-keyboard-response","153","223307","0.0-3.0-0.75","","fixation","","",""
"1558","Set1/134a.jpg","79","image-keyboard-response","154","224870","0.0-3.0-1.75","","","Update","o","true"
"null","<div style=""font-size:60px;"">+</div>","null","html-keyboard-response","155","225388","0.0-3.0-0.76","","fixation","","",""
"1590","Set1/146a.jpg","79","image-keyboard-response","156","226983","0.0-3.0-1.76","","","Update","o","true"
"null","<div style=""font-size:60px;"">+</div>","null","html-keyboard-response","157","227500","0.0-3.0-0.77","","fixation","","",""
"1385","Set1/107a.jpg","79","image-keyboard-response","158","228896","0.0-3.0-1.77","","","Update","o","true"
"null","<div style=""font-size:60px;"">+</div>","null","html-keyboard-response","159","229435","0.0-3.0-0.78","","fixation","","",""
"1197","Set1/079a.jpg","79","image-keyboard-response","160","230651","0.0-3.0-1.78","","","Repeat","o","true"
"null","<div style=""font-size:60px;"">+</div>","null","html-keyboard-response","161","231179","0.0-3.0-0.79","","fixation","","",""
"1047","Set1/121a.jpg","79","image-keyboard-response","162","232237","0.0-3.0-1.79","","","Update","o","true"
"null","<div style=""font-size:60px;"">+</div>","null","html-keyboard-response","163","232759","0.0-3.0-0.80","","fixation","","",""
"2037","Set1/095a.jpg","78","image-keyboard-response","164","234805","0.0-3.0-1.80","","","Repeat","n","true"
"null","<div style=""font-size:60px;"">+</div>","null","html-keyboard-response","165","235329","0.0-3.0-0.81","","fixation","","",""
"1530","Set1/041a.jpg","78","image-keyboard-response","166","236872","0.0-3.0-1.81","","","Repeat","n","true"
"null","<div style=""font-size:60px;"">+</div>","null","html-keyboard-response","167","237414","0.0-3.0-0.82","","fixation","","",""
"2050","Set1/100a.jpg","78","image-keyboard-response","168","239476","0.0-3.0-1.82","","","Update","n","true"
"null","<div style=""font-size:60px;"">+</div>","null","html-keyboard-response","169","240000","0.0-3.0-0.83","","fixation","","",""
"1567","Set1/036a.jpg","78","image-keyboard-response","170","241576","0.0-3.0-1.83","","","Repeat","n","true"
"null","<div style=""font-size:60px;"">+</div>","null","html-keyboard-response","171","242120","0.0-3.0-0.84","","fixation","","",""
"1133","Set1/115a.jpg","78","image-keyboard-response","172","243263","0.0-3.0-1.84","","","Update","n","true"
"null","<div style=""font-size:60px;"">+</div>","null","html-keyboard-response","173","243772","0.0-3.0-0.85","","fixation","","",""
"1131","Set1/123a.jpg","78","image-keyboard-response","174","244913","0.0-3.0-1.85","","","Update","n","true"
"null","<div style=""font-size:60px;"">+</div>","null","html-keyboard-response","175","245431","0.0-3.0-0.86","","fixation","","",""
"1208","Set1/015a.jpg","78","image-keyboard-response","176","246647","0.0-3.0-1.86","","","Set_1_Only","n","true"
"null","<div style=""font-size:60px;"">+</div>","null","html-keyboard-response","177","247165","0.0-3.0-0.87","","fixation","","",""
"1993","Set1/096a.jpg","78","image-keyboard-response","178","249164","0.0-3.0-1.87","","","Repeat","n","true"
"null","<div style=""font-size:60px;"">+</div>","null","html-keyboard-response","179","249683","0.0-3.0-0.88","","fixation","","",""
"1396","Set1/110a.jpg","78","image-keyboard-response","180","251089","0.0-3.0-1.88","","","Update","n","true"
"null","<div style=""font-size:60px;"">+</div>","null","html-keyboard-response","181","251606","0.0-3.0-0.89","","fixation","","",""
"1562","Set1/151a.jpg","78","image-keyboard-response","182","253178","0.0-3.0-1.89","","","Update","n","true"
"null","<div style=""font-size:60px;"">+</div>","null","html-keyboard-response","183","253704","0.0-3.0-0.90","","fixation","","",""
"1350","Set1/035a.jpg","78","image-keyboard-response","184","255071","0.0-3.0-1.90","","","Repeat","n","true"
"null","<div style=""font-size:60px;"">+</div>","null","html-keyboard-response","185","255593","0.0-3.0-0.91","","fixation","","",""
"1144","Set1/026a.jpg","78","image-keyboard-response","186","256748","0.0-3.0-1.91","","","Set_1_Only","n","true"
"null","<div style=""font-size:60px;"">+</div>","null","html-keyboard-response","187","257283","0.0-3.0-0.92","","fixation","","",""
"1182","Set1/067a.jpg","78","image-keyboard-response","188","258471","0.0-3.0-1.92","","","Repeat","n","true"
"null","<div style=""font-size:60px;"">+</div>","null","html-keyboard-response","189","258998","0.0-3.0-0.93","","fixation","","",""
"1185","Set1/076a.jpg","78","image-keyboard-response","190","260193","0.0-3.0-1.93","","","Repeat","n","true"
"null","<div style=""font-size:60px;"">+</div>","null","html-keyboard-response","191","260718","0.0-3.0-0.94","","fixation","","",""
"1252","Set1/125a.jpg","78","image-keyboard-response","192","261984","0.0-3.0-1.94","","","Update","n","true"
"null","<div style=""font-size:60px;"">+</div>","null","html-keyboard-response","193","262507","0.0-3.0-0.95","","fixation","","",""
"1537","Set1/123a.jpg","79","image-keyboard-response","194","264051","0.0-3.0-1.95","","","Update","o","true"
"null","<div style=""font-size:60px;"">+</div>","null","html-keyboard-response","195","264571","0.0-3.0-0.96","","fixation","","",""
"1029","Set1/076a.jpg","79","image-keyboard-response","196","265606","0.0-3.0-1.96","","","Repeat","o","true"
"null","<div style=""font-size:60px;"">+</div>","null","html-keyboard-response","197","266118","0.0-3.0-0.97","","fixation","","",""
"1386","Set1/151a.jpg","79","image-keyboard-response","198","267516","0.0-3.0-1.97","","","Update","o","true"
"null","<div style=""font-size:60px;"">+</div>","null","html-keyboard-response","199","268028","0.0-3.0-0.98","","fixation","","",""
"1200","Set1/115a.jpg","79","image-keyboard-response","200","269241","0.0-3.0-1.98","","","Update","o","true"
"null","<div style=""font-size:60px;"">+</div>","null","html-keyboard-response","201","269763","0.0-3.0-0.99","","fixation","","",""
"1327","Set1/081a.jpg","78","image-keyboard-response","202","271099","0.0-3.0-1.99","","","Repeat","n","true"
"null","<div style=""font-size:60px;"">+</div>","null","html-keyboard-response","203","271624","0.0-3.0-0.100","","fixation","","",""
"2782","Set1/015a.jpg","78","image-keyboard-response","204","274414","0.0-3.0-1.100","","","Set_1_Only","o","false"
"null","<div style=""font-size:60px;"">+</div>","null","html-keyboard-response","205","274947","0.0-3.0-0.101","","fixation","","",""
"1361","Set1/035a.jpg","79","image-keyboard-response","206","276460","0.0-3.0-1.101","","","Repeat","o","true"
"null","<div style=""font-size:60px;"">+</div>","null","html-keyboard-response","207","276976","0.0-3.0-0.102","","fixation","","",""
"1359","Set1/014a.jpg","78","image-keyboard-response","208","278345","0.0-3.0-1.102","","","Set_1_Only","n","true"
"null","<div style=""font-size:60px;"">+</div>","null","html-keyboard-response","209","278885","0.0-3.0-0.103","","fixation","","",""
"1641","Set1/152a.jpg","78","image-keyboard-response","210","280537","0.0-3.0-1.103","","","Update","n","true"
"null","<div style=""font-size:60px;"">+</div>","null","html-keyboard-response","211","281058","0.0-3.0-0.104","","fixation","","",""
"1641","Set1/114a.jpg","78","image-keyboard-response","212","282711","0.0-3.0-1.104","","","Update","n","true"
"null","<div style=""font-size:60px;"">+</div>","null","html-keyboard-response","213","283230","0.0-3.0-0.105","","fixation","","",""
"1817","Set1/019a.jpg","78","image-keyboard-response","214","285058","0.0-3.0-1.105","","","Set_1_Only","n","true"
"null","<div style=""font-size:60px;"">+</div>","null","html-keyboard-response","215","285567","0.0-3.0-0.106","","fixation","","",""
"1421","Set1/013a.jpg","78","image-keyboard-response","216","286996","0.0-3.0-1.106","","","Set_1_Only","n","true"
"null","<div style=""font-size:60px;"">+</div>","null","html-keyboard-response","217","287522","0.0-3.0-0.107","","fixation","","",""
"1044","Set1/053a.jpg","78","image-keyboard-response","218","288577","0.0-3.0-1.107","","","Repeat","n","true"
"null","<div style=""font-size:60px;"">+</div>","null","html-keyboard-response","219","289098","0.0-3.0-0.108","","fixation","","",""
"1190","Set1/026a.jpg","79","image-keyboard-response","220","290295","0.0-3.0-1.108","","","Set_1_Only","o","true"
"null","<div style=""font-size:60px;"">+</div>","null","html-keyboard-response","221","290821","0.0-3.0-0.109","","fixation","","",""
"1478","Set1/138a.jpg","78","image-keyboard-response","222","292307","0.0-3.0-1.109","","","Update","n","true"
"null","<div style=""font-size:60px;"">+</div>","null","html-keyboard-response","223","292825","0.0-3.0-0.110","","fixation","","",""
"1673","Set1/010a.jpg","78","image-keyboard-response","224","294505","0.0-3.0-1.110","","","Set_1_Only","n","true"
"null","<div style=""font-size:60px;"">+</div>","null","html-keyboard-response","225","295020","0.0-3.0-0.111","","fixation","","",""
"1650","Set1/008a.jpg","79","image-keyboard-response","226","296678","0.0-3.0-1.111","","","Set_1_Only","n","false"
"null","<div style=""font-size:60px;"">+</div>","null","html-keyboard-response","227","297186","0.0-3.0-0.112","","fixation","","",""
"1270","Set1/036a.jpg","79","image-keyboard-response","228","298465","0.0-3.0-1.112","","","Repeat","o","true"
"null","<div style=""font-size:60px;"">+</div>","null","html-keyboard-response","229","299003","0.0-3.0-0.113","","fixation","","",""
"1171","Set1/081a.jpg","79","image-keyboard-response","230","300186","0.0-3.0-1.113","","","Repeat","o","true"
"null","<div style=""font-size:60px;"">+</div>","null","html-keyboard-response","231","300700","0.0-3.0-0.114","","fixation","","",""
"1473","Set1/114a.jpg","79","image-keyboard-response","232","302177","0.0-3.0-1.114","","","Update","o","true"
"null","<div style=""font-size:60px;"">+</div>","null","html-keyboard-response","233","302690","0.0-3.0-0.115","","fixation","","",""
"1249","Set1/156a.jpg","78","image-keyboard-response","234","303947","0.0-3.0-1.115","","","Update","n","true"
"null","<div style=""font-size:60px;"">+</div>","null","html-keyboard-response","235","304466","0.0-3.0-0.116","","fixation","","",""
"1927","Set1/056a.jpg","78","image-keyboard-response","236","306399","0.0-3.0-1.116","","","Repeat","n","true"
"null","<div style=""font-size:60px;"">+</div>","null","html-keyboard-response","237","306917","0.0-3.0-0.117","","fixation","","",""
"1480","Set1/150a.jpg","78","image-keyboard-response","238","308405","0.0-3.0-1.117","","","Update","n","true"
"null","<div style=""font-size:60px;"">+</div>","null","html-keyboard-response","239","308925","0.0-3.0-0.118","","fixation","","",""
"1336","Set1/152a.jpg","78","image-keyboard-response","240","310270","0.0-3.0-1.118","","","Update","o","false"
"null","<div style=""font-size:60px;"">+</div>","null","html-keyboard-response","241","310788","0.0-3.0-0.119","","fixation","","",""
"1464","Set1/157a.jpg","78","image-keyboard-response","242","312258","0.0-3.0-1.119","","","Update","n","true"
"null","<div style=""font-size:60px;"">+</div>","null","html-keyboard-response","243","312779","0.0-3.0-0.120","","fixation","","",""
"1622","Set1/059a.jpg","78","image-keyboard-response","244","314410","0.0-3.0-1.120","","","Repeat","n","true"
"null","<div style=""font-size:60px;"">+</div>","null","html-keyboard-response","245","314921","0.0-3.0-0.121","","fixation","","",""
"1490","Set1/055a.jpg","78","image-keyboard-response","246","316416","0.0-3.0-1.121","","","Repeat","n","true"
"null","<div style=""font-size:60px;"">+</div>","null","html-keyboard-response","247","316925","0.0-3.0-0.122","","fixation","","",""
"1389","Set1/019a.jpg","79","image-keyboard-response","248","318324","0.0-3.0-1.122","","","Set_1_Only","o","true"
"null","<div style=""font-size:60px;"">+</div>","null","html-keyboard-response","249","318846","0.0-3.0-0.123","","fixation","","",""
"2636","Set1/075a.jpg","78","image-keyboard-response","250","321491","0.0-3.0-1.123","","","Repeat","n","true"
"null","<div style=""font-size:60px;"">+</div>","null","html-keyboard-response","251","322005","0.0-3.0-0.124","","fixation","","",""
"1732","Set1/048a.jpg","78","image-keyboard-response","252","323745","0.0-3.0-1.124","","","Repeat","n","true"
"null","<div style=""font-size:60px;"">+</div>","null","html-keyboard-response","253","324280","0.0-3.0-0.125","","fixation","","",""
"1743","Set1/052a.jpg","79","image-keyboard-response","254","326032","0.0-3.0-1.125","","","Repeat","n","false"
"null","<div style=""font-size:60px;"">+</div>","null","html-keyboard-response","255","326545","0.0-3.0-0.126","","fixation","","",""
"1270","Set1/154a.jpg","78","image-keyboard-response","256","327825","0.0-3.0-1.126","","","Update","n","true"
"null","<div style=""font-size:60px;"">+</div>","null","html-keyboard-response","257","328359","0.0-3.0-0.127","","fixation","","",""
"1411","Set1/041a.jpg","79","image-keyboard-response","258","329781","0.0-3.0-1.127","","","Repeat","o","true"
"null","<div style=""font-size:60px;"">+</div>","null","html-keyboard-response","259","330301","0.0-3.0-0.128","","fixation","","",""
"1109","Set1/010a.jpg","79","image-keyboard-response","260","331425","0.0-3.0-1.128","","","Set_1_Only","o","true"
"null","<div style=""font-size:60px;"">+</div>","null","html-keyboard-response","261","331940","0.0-3.0-0.129","","fixation","","",""
"1080","Set1/008a.jpg","79","image-keyboard-response","262","333027","0.0-3.0-1.129","","","Set_1_Only","o","true"
"null","<div style=""font-size:60px;"">+</div>","null","html-keyboard-response","263","333567","0.0-3.0-0.130","","fixation","","",""
"1069","Set1/154a.jpg","79","image-keyboard-response","264","334646","0.0-3.0-1.130","","","Update","o","true"
"null","<div style=""font-size:60px;"">+</div>","null","html-keyboard-response","265","335178","0.0-3.0-0.131","","fixation","","",""
"1065","Set1/048a.jpg","79","image-keyboard-response","266","336252","0.0-3.0-1.131","","","Repeat","o","true"
"null","<div style=""font-size:60px;"">+</div>","null","html-keyboard-response","267","336768","0.0-3.0-0.132","","fixation","","",""
"1122","Set1/053a.jpg","79","image-keyboard-response","268","337901","0.0-3.0-1.132","","","Repeat","o","true"
"null","<div style=""font-size:60px;"">+</div>","null","html-keyboard-response","269","338408","0.0-3.0-0.133","","fixation","","",""
"883","Set1/138a.jpg","79","image-keyboard-response","270","339298","0.0-3.0-1.133","","","Update","o","true"
"null","<div style=""font-size:60px;"">+</div>","null","html-keyboard-response","271","339832","0.0-3.0-0.134","","fixation","","",""
"1115","Set1/014a.jpg","79","image-keyboard-response","272","340957","0.0-3.0-1.134","","","Set_1_Only","o","true"
"null","<div style=""font-size:60px;"">+</div>","null","html-keyboard-response","273","341472","0.0-3.0-0.135","","fixation","","",""
"1089","Set1/075a.jpg","79","image-keyboard-response","274","342571","0.0-3.0-1.135","","","Repeat","o","true"
"null","<div style=""font-size:60px;"">+</div>","null","html-keyboard-response","275","343084","0.0-3.0-0.136","","fixation","","",""
"1330","Set1/111a.jpg","78","image-keyboard-response","276","344425","0.0-3.0-1.136","","","Update","n","true"
"null","<div style=""font-size:60px;"">+</div>","null","html-keyboard-response","277","344947","0.0-3.0-0.137","","fixation","","",""
"1523","Set1/056a.jpg","79","image-keyboard-response","278","346485","0.0-3.0-1.137","","","Repeat","o","true"
"null","<div style=""font-size:60px;"">+</div>","null","html-keyboard-response","279","347005","0.0-3.0-0.138","","fixation","","",""
"1332","Set1/003a.jpg","78","image-keyboard-response","280","348345","0.0-3.0-1.138","","","Set_1_Only","n","true"
"null","<div style=""font-size:60px;"">+</div>","null","html-keyboard-response","281","348857","0.0-3.0-0.139","","fixation","","",""
"1541","Set1/125a.jpg","79","image-keyboard-response","282","350413","0.0-3.0-1.139","","","Update","o","true"
"null","<div style=""font-size:60px;"">+</div>","null","html-keyboard-response","283","350953","0.0-3.0-0.140","","fixation","","",""
"null","Set1/072a.jpg","null","image-keyboard-response","284","360972","0.0-3.0-1.140","","","Repeat","n","false"
"null","<div style=""font-size:60px;"">+</div>","null","html-keyboard-response","285","361502","0.0-3.0-0.141","","fixation","","",""
"3044","Set1/084a.jpg","78","image-keyboard-response","286","364553","0.0-3.0-1.141","","","Repeat","n","true"
"null","<div style=""font-size:60px;"">+</div>","null","html-keyboard-response","287","365087","0.0-3.0-0.142","","fixation","","",""
"1429","Set1/156a.jpg","79","image-keyboard-response","288","366527","0.0-3.0-1.142","","","Update","o","true"
"null","<div style=""font-size:60px;"">+</div>","null","html-keyboard-response","289","367050","0.0-3.0-0.143","","fixation","","",""
"1737","Set1/003a.jpg","79","image-keyboard-response","290","368794","0.0-3.0-1.143","","","Set_1_Only","o","true"
"null","<div style=""font-size:60px;"">+</div>","null","html-keyboard-response","291","369335","0.0-3.0-0.144","","fixation","","",""
"1164","Set1/059a.jpg","79","image-keyboard-response","292","370514","0.0-3.0-1.144","","","Repeat","o","true"
"null","<div style=""font-size:60px;"">+</div>","null","html-keyboard-response","293","371025","0.0-3.0-0.145","","fixation","","",""
"1208","Set1/110a.jpg","79","image-keyboard-response","294","372245","0.0-3.0-1.145","","","Update","o","true"
"null","<div style=""font-size:60px;"">+</div>","null","html-keyboard-response","295","372759","0.0-3.0-0.146","","fixation","","",""
"1088","Set1/084a.jpg","79","image-keyboard-response","296","373854","0.0-3.0-1.146","","","Repeat","o","true"
"null","<div style=""font-size:60px;"">+</div>","null","html-keyboard-response","297","374369","0.0-3.0-0.147","","fixation","","",""
"1536","Set1/072a.jpg","78","image-keyboard-response","298","375912","0.0-3.0-1.147","","","Repeat","o","false"
"null","<div style=""font-size:60px;"">+</div>","null","html-keyboard-response","299","376421","0.0-3.0-0.148","","fixation","","",""
"1456","Set1/127a.jpg","79","image-keyboard-response","300","377885","0.0-3.0-1.148","","","Update","n","false"
"null","<div style=""font-size:60px;"">+</div>","null","html-keyboard-response","301","378392","0.0-3.0-0.149","","fixation","","",""
"1179","Set1/095a.jpg","79","image-keyboard-response","302","379580","0.0-3.0-1.149","","","Repeat","o","true"
"null","<div style=""font-size:60px;"">+</div>","null","html-keyboard-response","303","380099","0.0-3.0-0.150","","fixation","","",""
"1024","Set1/013a.jpg","79","image-keyboard-response","304","381131","0.0-3.0-1.150","","","Set_1_Only","o","true"
"null","<div style=""font-size:60px;"">+</div>","null","html-keyboard-response","305","381642","0.0-3.0-0.151","","fixation","","",""
"1066","Set1/067a.jpg","79","image-keyboard-response","306","382718","0.0-3.0-1.151","","","Repeat","o","true"
"null","<div style=""font-size:60px;"">+</div>","null","html-keyboard-response","307","383226","0.0-3.0-0.152","","fixation","","",""
"872","Set1/157a.jpg","79","image-keyboard-response","308","384107","0.0-3.0-1.152","","","Update","o","true"
"null","<div style=""font-size:60px;"">+</div>","null","html-keyboard-response","309","384625","0.0-3.0-0.153","","fixation","","",""
"1021","Set1/127a.jpg","79","image-keyboard-response","310","385657","0.0-3.0-1.153","","","Update","o","true"
"null","<div style=""font-size:60px;"">+</div>","null","html-keyboard-response","311","386184","0.0-3.0-0.154","","fixation","","",""
"867","Set1/052a.jpg","79","image-keyboard-response","312","387058","0.0-3.0-1.154","","","Repeat","o","true"
"null","<div style=""font-size:60px;"">+</div>","null","html-keyboard-response","313","387576","0.0-3.0-0.155","","fixation","","",""
"1555","Set1/055a.jpg","79","image-keyboard-response","314","389139","0.0-3.0-1.155","","","Repeat","o","true"
"null","<div style=""font-size:60px;"">+</div>","null","html-keyboard-response","315","389687","0.0-3.0-0.156","","fixation","","",""
"953","Set1/111a.jpg","79","image-keyboard-response","316","390649","0.0-3.0-1.156","","","Update","o","true"
"null","<div style=""font-size:60px;"">+</div>","null","html-keyboard-response","317","391171","0.0-3.0-0.157","","fixation","","",""
"1590","Set1/150a.jpg","79","image-keyboard-response","318","392770","0.0-3.0-1.157","","","Update","o","true"
"null","<div style=""font-size:60px;"">+</div>","null","html-keyboard-response","319","393288","0.0-3.0-0.158","","fixation","","",""
"1314","Set1/100a.jpg","79","image-keyboard-response","320","394612","0.0-3.0-1.158","","","Update","o","true"
"null","<div style=""font-size:60px;"">+</div>","null","html-keyboard-response","321","395137","0.0-3.0-0.159","","fixation","","",""
"1550","Set1/096a.jpg","79","image-keyboard-response","322","396696","0.0-3.0-1.159","","","Repeat","o","true"
"null","<div style=""font-size:60px;"">+</div>","null","html-keyboard-response","323","397215","0.0-3.0-0.160","","fixation","","",""
"1434","Set1/159a.jpg","78","image-keyboard-response","324","398655","0.0-3.0-1.160","","","Update","n","true"
"null","<div style=""font-size:60px;"">+</div>","null","html-keyboard-response","325","399189","0.0-3.0-0.161","","fixation","","",""
"1649","Set1/074a.jpg","78","image-keyboard-response","326","400846","0.0-3.0-1.161","","","Repeat","n","true"
"null","<div style=""font-size:60px;"">+</div>","null","html-keyboard-response","327","401364","0.0-3.0-0.162","","fixation","","",""
"1756","Set1/060a.jpg","79","image-keyboard-response","328","403126","0.0-3.0-1.162","","","Repeat","n","false"
"null","<div style=""font-size:60px;"">+</div>","null","html-keyboard-response","329","403646","0.0-3.0-0.163","","fixation","","",""
"1546","Set1/062a.jpg","78","image-keyboard-response","330","405202","0.0-3.0-1.163","","","Repeat","n","true"
"null","<div style=""font-size:60px;"">+</div>","null","html-keyboard-response","331","405726","0.0-3.0-0.164","","fixation","","",""
"1429","Set1/155a.jpg","78","image-keyboard-response","332","407162","0.0-3.0-1.164","","","Update","n","true"
"null","<div style=""font-size:60px;"">+</div>","null","html-keyboard-response","333","407686","0.0-3.0-0.165","","fixation","","",""
"1230","Set1/117a.jpg","78","image-keyboard-response","334","408938","0.0-3.0-1.165","","","Update","n","true"
"null","<div style=""font-size:60px;"">+</div>","null","html-keyboard-response","335","409465","0.0-3.0-0.166","","fixation","","",""
"1297","Set1/004a.jpg","78","image-keyboard-response","336","410770","0.0-3.0-1.166","","","Set_1_Only","n","true"
"null","<div style=""font-size:60px;"">+</div>","null","html-keyboard-response","337","411276","0.0-3.0-0.167","","fixation","","",""
"1226","Set1/097a.jpg","78","image-keyboard-response","338","412511","0.0-3.0-1.167","","","Update","n","true"
"null","<div style=""font-size:60px;"">+</div>","null","html-keyboard-response","339","413025","0.0-3.0-0.168","","fixation","","",""
"1313","Set1/130a.jpg","78","image-keyboard-response","340","414345","0.0-3.0-1.168","","","Update","n","true"
"null","<div style=""font-size:60px;"">+</div>","null","html-keyboard-response","341","414852","0.0-3.0-0.169","","fixation","","",""
"1234","Set1/068a.jpg","78","image-keyboard-response","342","416093","0.0-3.0-1.169","","","Repeat","n","true"
"null","<div style=""font-size:60px;"">+</div>","null","html-keyboard-response","343","416602","0.0-3.0-0.170","","fixation","","",""
"1171","Set1/137a.jpg","78","image-keyboard-response","344","417780","0.0-3.0-1.170","","","Update","n","true"
"null","<div style=""font-size:60px;"">+</div>","null","html-keyboard-response","345","418297","0.0-3.0-0.171","","fixation","","",""
"1362","Set1/097a.jpg","79","image-keyboard-response","346","419675","0.0-3.0-1.171","","","Update","o","true"
"null","<div style=""font-size:60px;"">+</div>","null","html-keyboard-response","347","420191","0.0-3.0-0.172","","fixation","","",""
"1446","Set1/147a.jpg","78","image-keyboard-response","348","421644","0.0-3.0-1.172","","","Update","n","true"
"null","<div style=""font-size:60px;"">+</div>","null","html-keyboard-response","349","422177","0.0-3.0-0.173","","fixation","","",""
"1150","Set1/155a.jpg","79","image-keyboard-response","350","423333","0.0-3.0-1.173","","","Update","o","true"
"null","<div style=""font-size:60px;"">+</div>","null","html-keyboard-response","351","423850","0.0-3.0-0.174","","fixation","","",""
"1324","Set1/002a.jpg","79","image-keyboard-response","352","425180","0.0-3.0-1.174","","","Set_1_Only","n","false"
"null","<div style=""font-size:60px;"">+</div>","null","html-keyboard-response","353","425701","0.0-3.0-0.175","","fixation","","",""
"1635","Set1/033a.jpg","78","image-keyboard-response","354","427345","0.0-3.0-1.175","","","Repeat","n","true"
"null","<div style=""font-size:60px;"">+</div>","null","html-keyboard-response","355","427866","0.0-3.0-0.176","","fixation","","",""
"2553","Set1/102a.jpg","78","image-keyboard-response","356","430427","0.0-3.0-1.176","","","Update","n","true"
"null","<div style=""font-size:60px;"">+</div>","null","html-keyboard-response","357","430935","0.0-3.0-0.177","","fixation","","",""
"1265","Set1/057a.jpg","78","image-keyboard-response","358","432208","0.0-3.0-1.177","","","Repeat","n","true"
"null","<div style=""font-size:60px;"">+</div>","null","html-keyboard-response","359","432746","0.0-3.0-0.178","","fixation","","",""
"1177","Set1/147a.jpg","79","image-keyboard-response","360","433927","0.0-3.0-1.178","","","Update","o","true"
"null","<div style=""font-size:60px;"">+</div>","null","html-keyboard-response","361","434460","0.0-3.0-0.179","","fixation","","",""
"1495","Set1/057a.jpg","78","image-keyboard-response","362","435966","0.0-3.0-1.179","","","Repeat","o","false"
"null","<div style=""font-size:60px;"">+</div>","null","html-keyboard-response","363","436491","0.0-3.0-0.180","","fixation","","",""
"1732","Set1/131a.jpg","78","image-keyboard-response","364","438230","0.0-3.0-1.180","","","Update","n","true"
"null","<div style=""font-size:60px;"">+</div>","null","html-keyboard-response","365","438759","0.0-3.0-0.181","","fixation","","",""
"1848","Set1/032a.jpg","79","image-keyboard-response","366","440617","0.0-3.0-1.181","","","Set_1_Only","n","false"
"null","<div style=""font-size:60px;"">+</div>","null","html-keyboard-response","367","441164","0.0-3.0-0.182","","fixation","","",""
"1747","Set1/065a.jpg","78","image-keyboard-response","368","442922","0.0-3.0-1.182","","","Repeat","n","true"
"null","<div style=""font-size:60px;"">+</div>","null","html-keyboard-response","369","443440","0.0-3.0-0.183","","fixation","","",""
"992","Set1/149a.jpg","78","image-keyboard-response","370","444444","0.0-3.0-1.183","","","Update","n","true"
"null","<div style=""font-size:60px;"">+</div>","null","html-keyboard-response","371","444961","0.0-3.0-0.184","","fixation","","",""
"1348","Set1/065a.jpg","79","image-keyboard-response","372","446317","0.0-3.0-1.184","","","Repeat","o","true"
"null","<div style=""font-size:60px;"">+</div>","null","html-keyboard-response","373","446850","0.0-3.0-0.185","","fixation","","",""
"1485","Set1/089a.jpg","79","image-keyboard-response","374","448345","0.0-3.0-1.185","","","Repeat","n","false"
"null","<div style=""font-size:60px;"">+</div>","null","html-keyboard-response","375","448868","0.0-3.0-0.186","","fixation","","",""
"1492","Set1/144a.jpg","78","image-keyboard-response","376","450366","0.0-3.0-1.186","","","Update","n","true"
"null","<div style=""font-size:60px;"">+</div>","null","html-keyboard-response","377","450899","0.0-3.0-0.187","","fixation","","",""
"1644","Set1/069a.jpg","78","image-keyboard-response","378","452550","0.0-3.0-1.187","","","Repeat","n","true"
"null","<div style=""font-size:60px;"">+</div>","null","html-keyboard-response","379","453060","0.0-3.0-0.188","","fixation","","",""
"1178","Set1/129a.jpg","78","image-keyboard-response","380","454248","0.0-3.0-1.188","","","Update","n","true"
"null","<div style=""font-size:60px;"">+</div>","null","html-keyboard-response","381","454764","0.0-3.0-0.189","","fixation","","",""
"1275","Set1/032a.jpg","79","image-keyboard-response","382","456053","0.0-3.0-1.189","","","Set_1_Only","o","true"
"null","<div style=""font-size:60px;"">+</div>","null","html-keyboard-response","383","456595","0.0-3.0-0.190","","fixation","","",""
"2059","Set1/024a.jpg","78","image-keyboard-response","384","458662","0.0-3.0-1.190","","","Set_1_Only","n","true"
"null","<div style=""font-size:60px;"">+</div>","null","html-keyboard-response","385","459186","0.0-3.0-0.191","","fixation","","",""
"1298","Set1/078a.jpg","78","image-keyboard-response","386","460492","0.0-3.0-1.191","","","Repeat","n","true"
"null","<div style=""font-size:60px;"">+</div>","null","html-keyboard-response","387","461014","0.0-3.0-0.192","","fixation","","",""
"1167","Set1/103a.jpg","78","image-keyboard-response","388","462189","0.0-3.0-1.192","","","Update","n","true"
"null","<div style=""font-size:60px;"">+</div>","null","html-keyboard-response","389","462723","0.0-3.0-0.193","","fixation","","",""
"1048","Set1/130a.jpg","79","image-keyboard-response","390","463784","0.0-3.0-1.193","","","Update","o","true"
"null","<div style=""font-size:60px;"">+</div>","null","html-keyboard-response","391","464317","0.0-3.0-0.194","","fixation","","",""
"1466","Set1/022a.jpg","79","image-keyboard-response","392","465790","0.0-3.0-1.194","","","Set_1_Only","n","false"
"null","<div style=""font-size:60px;"">+</div>","null","html-keyboard-response","393","466301","0.0-3.0-0.195","","fixation","","",""
"1232","Set1/124a.jpg","78","image-keyboard-response","394","467544","0.0-3.0-1.195","","","Update","n","true"
"null","<div style=""font-size:60px;"">+</div>","null","html-keyboard-response","395","468076","0.0-3.0-0.196","","fixation","","",""
"1134","Set1/068a.jpg","79","image-keyboard-response","396","469217","0.0-3.0-1.196","","","Repeat","o","true"
"null","<div style=""font-size:60px;"">+</div>","null","html-keyboard-response","397","469739","0.0-3.0-0.197","","fixation","","",""
"999","Set1/078a.jpg","79","image-keyboard-response","398","470748","0.0-3.0-1.197","","","Repeat","o","true"
"null","<div style=""font-size:60px;"">+</div>","null","html-keyboard-response","399","471270","0.0-3.0-0.198","","fixation","","",""
"999","Set1/137a.jpg","79","image-keyboard-response","400","472275","0.0-3.0-1.198","","","Update","o","true"
"null","<div style=""font-size:60px;"">+</div>","null","html-keyboard-response","401","472783","0.0-3.0-0.199","","fixation","","",""
"1464","Set1/118a.jpg","79","image-keyboard-response","402","474261","0.0-3.0-1.199","","","Update","n","false"
"null","<div style=""font-size:60px;"">+</div>","null","html-keyboard-response","403","474783","0.0-3.0-0.200","","fixation","","",""
"985","Set1/149a.jpg","79","image-keyboard-response","404","475775","0.0-3.0-1.200","","","Update","o","true"
"null","<div style=""font-size:60px;"">+</div>","null","html-keyboard-response","405","476288","0.0-3.0-0.201","","fixation","","",""
"1168","Set1/002a.jpg","79","image-keyboard-response","406","477471","0.0-3.0-1.201","","","Set_1_Only","o","true"
"null","<div style=""font-size:60px;"">+</div>","null","html-keyboard-response","407","478003","0.0-3.0-0.202","","fixation","","",""
"1987","Set1/103a.jpg","79","image-keyboard-response","408","480003","0.0-3.0-1.202","","","Update","o","true"
"null","<div style=""font-size:60px;"">+</div>","null","html-keyboard-response","409","480532","0.0-3.0-0.203","","fixation","","",""
"1759","Set1/012a.jpg","78","image-keyboard-response","410","482302","0.0-3.0-1.203","","","Set_1_Only","n","true"
"null","<div style=""font-size:60px;"">+</div>","null","html-keyboard-response","411","482824","0.0-3.0-0.204","","fixation","","",""
"1128","Set1/104a.jpg","78","image-keyboard-response","412","483966","0.0-3.0-1.204","","","Update","n","true"
"null","<div style=""font-size:60px;"">+</div>","null","html-keyboard-response","413","484478","0.0-3.0-0.205","","fixation","","",""
"1640","Set1/080a.jpg","78","image-keyboard-response","414","486129","0.0-3.0-1.205","","","Repeat","n","true"
"null","<div style=""font-size:60px;"">+</div>","null","html-keyboard-response","415","486660","0.0-3.0-0.206","","fixation","","",""
"1161","Set1/040a.jpg","78","image-keyboard-response","416","487835","0.0-3.0-1.206","","","Repeat","n","true"
"null","<div style=""font-size:60px;"">+</div>","null","html-keyboard-response","417","488352","0.0-3.0-0.207","","fixation","","",""
"984","Set1/145a.jpg","78","image-keyboard-response","418","489345","0.0-3.0-1.207","","","Update","n","true"
"null","<div style=""font-size:60px;"">+</div>","null","html-keyboard-response","419","489869","0.0-3.0-0.208","","fixation","","",""
"1325","Set1/004a.jpg","79","image-keyboard-response","420","491208","0.0-3.0-1.208","","","Set_1_Only","o","true"
"null","<div style=""font-size:60px;"">+</div>","null","html-keyboard-response","421","491715","0.0-3.0-0.209","","fixation","","",""
"1414","Set1/073a.jpg","78","image-keyboard-response","422","493139","0.0-3.0-1.209","","","Repeat","n","true"
"null","<div style=""font-size:60px;"">+</div>","null","html-keyboard-response","423","493673","0.0-3.0-0.210","","fixation","","",""
"1849","Set1/144a.jpg","79","image-keyboard-response","424","495533","0.0-3.0-1.210","","","Update","o","true"
"null","<div style=""font-size:60px;"">+</div>","null","html-keyboard-response","425","496071","0.0-3.0-0.211","","fixation","","",""
"1312","Set1/145a.jpg","79","image-keyboard-response","426","497394","0.0-3.0-1.211","","","Update","o","true"
"null","<div style=""font-size:60px;"">+</div>","null","html-keyboard-response","427","497917","0.0-3.0-0.212","","fixation","","",""
"1263","Set1/124a.jpg","79","image-keyboard-response","428","499208","0.0-3.0-1.212","","","Update","o","true"
"null","<div style=""font-size:60px;"">+</div>","null","html-keyboard-response","429","499728","0.0-3.0-0.213","","fixation","","",""
"1309","Set1/040a.jpg","79","image-keyboard-response","430","501049","0.0-3.0-1.213","","","Repeat","o","true"
"null","<div style=""font-size:60px;"">+</div>","null","html-keyboard-response","431","501563","0.0-3.0-0.214","","fixation","","",""
"1358","Set1/069a.jpg","79","image-keyboard-response","432","502929","0.0-3.0-1.214","","","Repeat","o","true"
"null","<div style=""font-size:60px;"">+</div>","null","html-keyboard-response","433","503440","0.0-3.0-0.215","","fixation","","",""
"1499","Set1/143a.jpg","78","image-keyboard-response","434","504963","0.0-3.0-1.215","","","Update","n","true"
"null","<div style=""font-size:60px;"">+</div>","null","html-keyboard-response","435","505479","0.0-3.0-0.216","","fixation","","",""
"1069","Set1/024a.jpg","79","image-keyboard-response","436","506567","0.0-3.0-1.216","","","Set_1_Only","o","true"
"null","<div style=""font-size:60px;"">+</div>","null","html-keyboard-response","437","507081","0.0-3.0-0.217","","fixation","","",""
"1071","Set1/131a.jpg","79","image-keyboard-response","438","508166","0.0-3.0-1.217","","","Update","o","true"
"null","<div style=""font-size:60px;"">+</div>","null","html-keyboard-response","439","508680","0.0-3.0-0.218","","fixation","","",""
"1654","Set1/094a.jpg","78","image-keyboard-response","440","510341","0.0-3.0-1.218","","","Repeat","n","true"
"null","<div style=""font-size:60px;"">+</div>","null","html-keyboard-response","441","510854","0.0-3.0-0.219","","fixation","","",""
"1018","Set1/104a.jpg","79","image-keyboard-response","442","511879","0.0-3.0-1.219","","","Update","o","true"
"null","<div style=""font-size:60px;"">+</div>","null","html-keyboard-response","443","512416","0.0-3.0-0.220","","fixation","","",""
"1112","Set1/080a.jpg","79","image-keyboard-response","444","513534","0.0-3.0-1.220","","","Repeat","o","true"
"null","<div style=""font-size:60px;"">+</div>","null","html-keyboard-response","445","514043","0.0-3.0-0.221","","fixation","","",""
"1184","Set1/060a.jpg","79","image-keyboard-response","446","515240","0.0-3.0-1.221","","","Repeat","o","true"
"null","<div style=""font-size:60px;"">+</div>","null","html-keyboard-response","447","515761","0.0-3.0-0.222","","fixation","","",""
"987","Set1/129a.jpg","79","image-keyboard-response","448","516757","0.0-3.0-1.222","","","Update","o","true"
"null","<div style=""font-size:60px;"">+</div>","null","html-keyboard-response","449","517266","0.0-3.0-0.223","","fixation","","",""
"1234","Set1/089a.jpg","79","image-keyboard-response","450","518509","0.0-3.0-1.223","","","Repeat","o","true"
"null","<div style=""font-size:60px;"">+</div>","null","html-keyboard-response","451","519036","0.0-3.0-0.224","","fixation","","",""
"990","Set1/159a.jpg","79","image-keyboard-response","452","520040","0.0-3.0-1.224","","","Update","o","true"
"null","<div style=""font-size:60px;"">+</div>","null","html-keyboard-response","453","520564","0.0-3.0-0.225","","fixation","","",""
"1629","Set1/135a.jpg","78","image-keyboard-response","454","522214","0.0-3.0-1.225","","","Update","n","true"
"null","<div style=""font-size:60px;"">+</div>","null","html-keyboard-response","455","522766","0.0-3.0-0.226","","fixation","","",""
"1693","Set1/116a.jpg","78","image-keyboard-response","456","524465","0.0-3.0-1.226","","","Update","n","true"
"null","<div style=""font-size:60px;"">+</div>","null","html-keyboard-response","457","524987","0.0-3.0-0.227","","fixation","","",""
"1500","Set1/102a.jpg","79","image-keyboard-response","458","526496","0.0-3.0-1.227","","","Update","o","true"
"null","<div style=""font-size:60px;"">+</div>","null","html-keyboard-response","459","527034","0.0-3.0-0.228","","fixation","","",""
"1607","Set1/022a.jpg","78","image-keyboard-response","460","528653","0.0-3.0-1.228","","","Set_1_Only","o","false"
"null","<div style=""font-size:60px;"">+</div>","null","html-keyboard-response","461","529180","0.0-3.0-0.229","","fixation","","",""
"1655","Set1/094a.jpg","79","image-keyboard-response","462","530863","0.0-3.0-1.229","","","Repeat","o","true"
"null","<div style=""font-size:60px;"">+</div>","null","html-keyboard-response","463","531378","0.0-3.0-0.230","","fixation","","",""
"1106","Set1/118a.jpg","79","image-keyboard-response","464","532502","0.0-3.0-1.230","","","Update","o","true"
"null","<div style=""font-size:60px;"">+</div>","null","html-keyboard-response","465","533042","0.0-3.0-0.231","","fixation","","",""
"1133","Set1/033a.jpg","79","image-keyboard-response","466","534196","0.0-3.0-1.231","","","Repeat","o","true"
"null","<div style=""font-size:60px;"">+</div>","null","html-keyboard-response","467","534717","0.0-3.0-0.232","","fixation","","",""
"1327","Set1/117a.jpg","79","image-keyboard-response","468","536058","0.0-3.0-1.232","","","Update","o","true"
"null","<div style=""font-size:60px;"">+</div>","null","html-keyboard-response","469","536591","0.0-3.0-0.233","","fixation","","",""
"1268","Set1/135a.jpg","79","image-keyboard-response","470","537865","0.0-3.0-1.233","","","Update","o","true"
"null","<div style=""font-size:60px;"">+</div>","null","html-keyboard-response","471","538379","0.0-3.0-0.234","","fixation","","",""
"1059","Set1/116a.jpg","79","image-keyboard-response","472","539450","0.0-3.0-1.234","","","Update","o","true"
"null","<div style=""font-size:60px;"">+</div>","null","html-keyboard-response","473","539980","0.0-3.0-0.235","","fixation","","",""
"1717","Set1/143a.jpg","78","image-keyboard-response","474","541706","0.0-3.0-1.235","","","Update","o","false"
"null","<div style=""font-size:60px;"">+</div>","null","html-keyboard-response","475","542226","0.0-3.0-0.236","","fixation","","",""
"2379","Set1/074a.jpg","79","image-keyboard-response","476","544620","0.0-3.0-1.236","","","Repeat","o","true"
"null","<div style=""font-size:60px;"">+</div>","null","html-keyboard-response","477","545158","0.0-3.0-0.237","","fixation","","",""
"1559","Set1/012a.jpg","79","image-keyboard-response","478","546732","0.0-3.0-1.237","","","Set_1_Only","o","true"
"null","<div style=""font-size:60px;"">+</div>","null","html-keyboard-response","479","547259","0.0-3.0-0.238","","fixation","","",""
"1019","Set1/062a.jpg","79","image-keyboard-response","480","548294","0.0-3.0-1.238","","","Repeat","o","true"
"null","<div style=""font-size:60px;"">+</div>","null","html-keyboard-response","481","548814","0.0-3.0-0.239","","fixation","","",""
"1735","Set1/073a.jpg","78","image-keyboard-response","482","550560","0.0-3.0-1.239","","","Repeat","o","false"
"null","<div style=""font-size:60px;"">+</div>","null","html-keyboard-response","483","551089","0.0-3.0-0.240","","fixation","","",""
"1673","Set1/029a.jpg","78","image-keyboard-response","484","552775","0.0-3.0-1.240","","","Set_1_Only","n","true"
"null","<div style=""font-size:60px;"">+</div>","null","html-keyboard-response","485","553288","0.0-3.0-0.241","","fixation","","",""
"1436","Set1/098a.jpg","78","image-keyboard-response","486","554731","0.0-3.0-1.241","","","Update","n","true"
"null","<div style=""font-size:60px;"">+</div>","null","html-keyboard-response","487","555239","0.0-3.0-0.242","","fixation","","",""
"1616","Set1/086a.jpg","78","image-keyboard-response","488","556867","0.0-3.0-1.242","","","Repeat","n","true"
"null","<div style=""font-size:60px;"">+</div>","null","html-keyboard-response","489","557387","0.0-3.0-0.243","","fixation","","",""
"2438","Set1/070a.jpg","78","image-keyboard-response","490","559834","0.0-3.0-1.243","","","Repeat","n","true"
"null","<div style=""font-size:60px;"">+</div>","null","html-keyboard-response","491","560351","0.0-3.0-0.244","","fixation","","",""
"2584","Set1/091a.jpg","78","image-keyboard-response","492","562944","0.0-3.0-1.244","","","Repeat","n","true"
"null","<div style=""font-size:60px;"">+</div>","null","html-keyboard-response","493","563465","0.0-3.0-0.245","","fixation","","",""
"2802","Set1/043a.jpg","79","image-keyboard-response","494","566277","0.0-3.0-1.245","","","Repeat","n","false"
"null","<div style=""font-size:60px;"">+</div>","null","html-keyboard-response","495","566786","0.0-3.0-0.246","","fixation","","",""
"1721","Set1/083a.jpg","78","image-keyboard-response","496","568515","0.0-3.0-1.246","","","Repeat","n","true"
"null","<div style=""font-size:60px;"">+</div>","null","html-keyboard-response","497","569033","0.0-3.0-0.247","","fixation","","",""
"1622","Set1/011a.jpg","78","image-keyboard-response","498","570664","0.0-3.0-1.247","","","Set_1_Only","n","true"
"null","<div style=""font-size:60px;"">+</div>","null","html-keyboard-response","499","571187","0.0-3.0-0.248","","fixation","","",""
"1299","Set1/142a.jpg","78","image-keyboard-response","500","572496","0.0-3.0-1.248","","","Update","n","true"
"null","<div style=""font-size:60px;"">+</div>","null","html-keyboard-response","501","573018","0.0-3.0-0.249","","fixation","","",""
"1252","Set1/061a.jpg","78","image-keyboard-response","502","574276","0.0-3.0-1.249","","","Repeat","n","true"
"null","<div style=""font-size:60px;"">+</div>","null","html-keyboard-response","503","574783","0.0-3.0-0.250","","fixation","","",""
"1148","Set1/007a.jpg","78","image-keyboard-response","504","575938","0.0-3.0-1.250","","","Set_1_Only","n","true"
"null","<div style=""font-size:60px;"">+</div>","null","html-keyboard-response","505","576448","0.0-3.0-0.251","","fixation","","",""
"1552","Set1/039a.jpg","79","image-keyboard-response","506","578009","0.0-3.0-1.251","","","Repeat","n","false"
"null","<div style=""font-size:60px;"">+</div>","null","html-keyboard-response","507","578525","0.0-3.0-0.252","","fixation","","",""
"1493","Set1/023a.jpg","78","image-keyboard-response","508","580025","0.0-3.0-1.252","","","Set_1_Only","n","true"
"null","<div style=""font-size:60px;"">+</div>","null","html-keyboard-response","509","580542","0.0-3.0-0.253","","fixation","","",""
"2456","Set1/001a.jpg","79","image-keyboard-response","510","583010","0.0-3.0-1.253","","","Set_1_Only","n","false"
"null","<div style=""font-size:60px;"">+</div>","null","html-keyboard-response","511","583532","0.0-3.0-0.254","","fixation","","",""
"1891","Set1/038a.jpg","78","image-keyboard-response","512","585431","0.0-3.0-1.254","","","Repeat","n","true"
"null","<div style=""font-size:60px;"">+</div>","null","html-keyboard-response","513","585939","0.0-3.0-0.255","","fixation","","",""
"1430","Set1/126a.jpg","78","image-keyboard-response","514","587378","0.0-3.0-1.255","","","Update","n","true"
"null","<div style=""font-size:60px;"">+</div>","null","html-keyboard-response","515","587896","0.0-3.0-0.256","","fixation","","",""
"1091","Set1/021a.jpg","78","image-keyboard-response","516","588996","0.0-3.0-1.256","","","Set_1_Only","n","true"
"null","<div style=""font-size:60px;"">+</div>","null","html-keyboard-response","517","589516","0.0-3.0-0.257","","fixation","","",""
"1204","Set1/109a.jpg","78","image-keyboard-response","518","590726","0.0-3.0-1.257","","","Update","n","true"
"null","<div style=""font-size:60px;"">+</div>","null","html-keyboard-response","519","591261","0.0-3.0-0.258","","fixation","","",""
"1201","Set1/099a.jpg","78","image-keyboard-response","520","592469","0.0-3.0-1.258","","","Update","n","true"
"null","<div style=""font-size:60px;"">+</div>","null","html-keyboard-response","521","592981","0.0-3.0-0.259","","fixation","","",""
"1235","Set1/122a.jpg","78","image-keyboard-response","522","594226","0.0-3.0-1.259","","","Update","n","true"
"null","<div style=""font-size:60px;"">+</div>","null","html-keyboard-response","523","594766","0.0-3.0-0.260","","fixation","","",""
"1379","Set1/023a.jpg","79","image-keyboard-response","524","596161","0.0-3.0-1.260","","","Set_1_Only","o","true"
"null","<div style=""font-size:60px;"">+</div>","null","html-keyboard-response","525","596687","0.0-3.0-0.261","","fixation","","",""
"1378","Set1/017a.jpg","78","image-keyboard-response","526","598077","0.0-3.0-1.261","","","Set_1_Only","n","true"
"null","<div style=""font-size:60px;"">+</div>","null","html-keyboard-response","527","598594","0.0-3.0-0.262","","fixation","","",""
"1369","Set1/132a.jpg","78","image-keyboard-response","528","599969","0.0-3.0-1.262","","","Update","n","true"
"null","<div style=""font-size:60px;"">+</div>","null","html-keyboard-response","529","600487","0.0-3.0-0.263","","fixation","","",""
"1239","Set1/042a.jpg","78","image-keyboard-response","530","601735","0.0-3.0-1.263","","","Repeat","n","true"
"null","<div style=""font-size:60px;"">+</div>","null","html-keyboard-response","531","602261","0.0-3.0-0.264","","fixation","","",""
"1569","Set1/087a.jpg","78","image-keyboard-response","532","603837","0.0-3.0-1.264","","","Repeat","n","true"
"null","<div style=""font-size:60px;"">+</div>","null","html-keyboard-response","533","604350","0.0-3.0-0.265","","fixation","","",""
"1595","Set1/101a.jpg","78","image-keyboard-response","534","605952","0.0-3.0-1.265","","","Update","n","true"
"null","<div style=""font-size:60px;"">+</div>","null","html-keyboard-response","535","606471","0.0-3.0-0.266","","fixation","","",""
"1214","Set1/066a.jpg","78","image-keyboard-response","536","607692","0.0-3.0-1.266","","","Repeat","n","true"
"null","<div style=""font-size:60px;"">+</div>","null","html-keyboard-response","537","608208","0.0-3.0-0.267","","fixation","","",""
"1115","Set1/091a.jpg","79","image-keyboard-response","538","609333","0.0-3.0-1.267","","","Repeat","o","true"
"null","<div style=""font-size:60px;"">+</div>","null","html-keyboard-response","539","609851","0.0-3.0-0.268","","fixation","","",""
"1691","Set1/077a.jpg","78","image-keyboard-response","540","611551","0.0-3.0-1.268","","","Repeat","n","true"
"null","<div style=""font-size:60px;"">+</div>","null","html-keyboard-response","541","612067","0.0-3.0-0.269","","fixation","","",""
"1467","Set1/042a.jpg","79","image-keyboard-response","542","613544","0.0-3.0-1.269","","","Repeat","o","true"
"null","<div style=""font-size:60px;"">+</div>","null","html-keyboard-response","543","614069","0.0-3.0-0.270","","fixation","","",""
"1279","Set1/018a.jpg","78","image-keyboard-response","544","615356","0.0-3.0-1.270","","","Set_1_Only","n","true"
"null","<div style=""font-size:60px;"">+</div>","null","html-keyboard-response","545","615890","0.0-3.0-0.271","","fixation","","",""
"1310","Set1/058a.jpg","78","image-keyboard-response","546","617208","0.0-3.0-1.271","","","Repeat","n","true"
"null","<div style=""font-size:60px;"">+</div>","null","html-keyboard-response","547","617735","0.0-3.0-0.272","","fixation","","",""
"1314","Set1/132a.jpg","78","image-keyboard-response","548","619058","0.0-3.0-1.272","","","Update","o","false"
"null","<div style=""font-size:60px;"">+</div>","null","html-keyboard-response","549","619589","0.0-3.0-0.273","","fixation","","",""
"1115","Set1/038a.jpg","79","image-keyboard-response","550","620718","0.0-3.0-1.273","","","Repeat","o","true"
"null","<div style=""font-size:60px;"">+</div>","null","html-keyboard-response","551","621235","0.0-3.0-0.274","","fixation","","",""
"1031","Set1/066a.jpg","79","image-keyboard-response","552","622279","0.0-3.0-1.274","","","Repeat","o","true"
"null","<div style=""font-size:60px;"">+</div>","null","html-keyboard-response","553","622814","0.0-3.0-0.275","","fixation","","",""
"1074","Set1/099a.jpg","79","image-keyboard-response","554","623894","0.0-3.0-1.275","","","Update","o","true"
"null","<div style=""font-size:60px;"">+</div>","null","html-keyboard-response","555","624417","0.0-3.0-0.276","","fixation","","",""
"980","Set1/126a.jpg","79","image-keyboard-response","556","625405","0.0-3.0-1.276","","","Update","o","true"
"null","<div style=""font-size:60px;"">+</div>","null","html-keyboard-response","557","625939","0.0-3.0-0.277","","fixation","","",""
"1633","Set1/009a.jpg","79","image-keyboard-response","558","627587","0.0-3.0-1.277","","","Set_1_Only","n","false"
"null","<div style=""font-size:60px;"">+</div>","null","html-keyboard-response","559","628098","0.0-3.0-0.278","","fixation","","",""
"1679","Set1/046a.jpg","78","image-keyboard-response","560","629786","0.0-3.0-1.278","","","Repeat","n","true"
"null","<div style=""font-size:60px;"">+</div>","null","html-keyboard-response","561","630319","0.0-3.0-0.279","","fixation","","",""
"1069","Set1/039a.jpg","79","image-keyboard-response","562","631430","0.0-3.0-1.279","","","Repeat","o","true"
"null","<div style=""font-size:60px;"">+</div>","null","html-keyboard-response","563","631960","0.0-3.0-0.280","","fixation","","",""
"1715","Set1/001a.jpg","79","image-keyboard-response","564","633680","0.0-3.0-1.280","","","Set_1_Only","o","true"
"null","<div style=""font-size:60px;"">+</div>","null","html-keyboard-response","565","634196","0.0-3.0-0.281","","fixation","","",""
"961","Set1/122a.jpg","79","image-keyboard-response","566","635165","0.0-3.0-1.281","","","Update","o","true"
"null","<div style=""font-size:60px;"">+</div>","null","html-keyboard-response","567","635695","0.0-3.0-0.282","","fixation","","",""
"1328","Set1/086a.jpg","79","image-keyboard-response","568","637037","0.0-3.0-1.282","","","Repeat","o","true"
"null","<div style=""font-size:60px;"">+</div>","null","html-keyboard-response","569","637572","0.0-3.0-0.283","","fixation","","",""
"2146","Set1/046a.jpg","79","image-keyboard-response","570","639722","0.0-3.0-1.283","","","Repeat","o","true"
"null","<div style=""font-size:60px;"">+</div>","null","html-keyboard-response","571","640233","0.0-3.0-0.284","","fixation","","",""
"1258","Set1/043a.jpg","79","image-keyboard-response","572","641505","0.0-3.0-1.284","","","Repeat","o","true"
"null","<div style=""font-size:60px;"">+</div>","null","html-keyboard-response","573","642018","0.0-3.0-0.285","","fixation","","",""
"1530","Set1/016a.jpg","78","image-keyboard-response","574","643559","0.0-3.0-1.285","","","Set_1_Only","n","true"
"null","<div style=""font-size:60px;"">+</div>","null","html-keyboard-response","575","644098","0.0-3.0-0.286","","fixation","","",""
"2154","Set1/090a.jpg","78","image-keyboard-response","576","646257","0.0-3.0-1.286","","","Repeat","n","true"
"null","<div style=""font-size:60px;"">+</div>","null","html-keyboard-response","577","646771","0.0-3.0-0.287","","fixation","","",""
"1543","Set1/141a.jpg","78","image-keyboard-response","578","648329","0.0-3.0-1.287","","","Update","n","true"
"null","<div style=""font-size:60px;"">+</div>","null","html-keyboard-response","579","648864","0.0-3.0-0.288","","fixation","","",""
"1732","Set1/090a.jpg","78","image-keyboard-response","580","650606","0.0-3.0-1.288","","","Repeat","o","false"
"null","<div style=""font-size:60px;"">+</div>","null","html-keyboard-response","581","651131","0.0-3.0-0.289","","fixation","","",""
"1655","Set1/139a.jpg","78","image-keyboard-response","582","652797","0.0-3.0-1.289","","","Update","n","true"
"null","<div style=""font-size:60px;"">+</div>","null","html-keyboard-response","583","653323","0.0-3.0-0.290","","fixation","","",""
"1334","Set1/101a.jpg","79","image-keyboard-response","584","654668","0.0-3.0-1.290","","","Update","o","true"
"null","<div style=""font-size:60px;"">+</div>","null","html-keyboard-response","585","655186","0.0-3.0-0.291","","fixation","","",""
"null","Set1/092a.jpg","null","image-keyboard-response","586","665199","0.0-3.0-1.291","","","Repeat","n","false"
"null","<div style=""font-size:60px;"">+</div>","null","html-keyboard-response","587","665708","0.0-3.0-0.292","","fixation","","",""
"1901","Set1/087a.jpg","79","image-keyboard-response","588","667620","0.0-3.0-1.292","","","Repeat","o","true"
"null","<div style=""font-size:60px;"">+</div>","null","html-keyboard-response","589","668165","0.0-3.0-0.293","","fixation","","",""
"1444","Set1/034a.jpg","78","image-keyboard-response","590","669620","0.0-3.0-1.293","","","Repeat","n","true"
"null","<div style=""font-size:60px;"">+</div>","null","html-keyboard-response","591","670137","0.0-3.0-0.294","","fixation","","",""
"1751","Set1/153a.jpg","79","image-keyboard-response","592","671894","0.0-3.0-1.294","","","Update","n","false"
"null","<div style=""font-size:60px;"">+</div>","null","html-keyboard-response","593","672434","0.0-3.0-0.295","","fixation","","",""
"1877","Set1/092a.jpg","78","image-keyboard-response","594","674320","0.0-3.0-1.295","","","Repeat","o","false"
"null","<div style=""font-size:60px;"">+</div>","null","html-keyboard-response","595","674870","0.0-3.0-0.296","","fixation","","",""
"1234","Set1/077a.jpg","79","image-keyboard-response","596","676117","0.0-3.0-1.296","","","Repeat","o","true"
"null","<div style=""font-size:60px;"">+</div>","null","html-keyboard-response","597","676649","0.0-3.0-0.297","","fixation","","",""
"1538","Set1/112a.jpg","78","image-keyboard-response","598","678199","0.0-3.0-1.297","","","Update","n","true"
"null","<div style=""font-size:60px;"">+</div>","null","html-keyboard-response","599","678715","0.0-3.0-0.298","","fixation","","",""
"1124","Set1/018a.jpg","78","image-keyboard-response","600","679854","0.0-3.0-1.298","","","Set_1_Only","o","false"
"null","<div style=""font-size:60px;"">+</div>","null","html-keyboard-response","601","680376","0.0-3.0-0.299","","fixation","","",""
"1185","Set1/139a.jpg","79","image-keyboard-response","602","681575","0.0-3.0-1.299","","","Update","o","true"
"null","<div style=""font-size:60px;"">+</div>","null","html-keyboard-response","603","682096","0.0-3.0-0.300","","fixation","","",""
"1527","Set1/153a.jpg","79","image-keyboard-response","604","683637","0.0-3.0-1.300","","","Update","o","true"
"null","<div style=""font-size:60px;"">+</div>","null","html-keyboard-response","605","684160","0.0-3.0-0.301","","fixation","","",""
"1141","Set1/017a.jpg","79","image-keyboard-response","606","685315","0.0-3.0-1.301","","","Set_1_Only","o","true"
"null","<div style=""font-size:60px;"">+</div>","null","html-keyboard-response","607","685847","0.0-3.0-0.302","","fixation","","",""
"1027","Set1/112a.jpg","79","image-keyboard-response","608","686888","0.0-3.0-1.302","","","Update","o","true"
"null","<div style=""font-size:60px;"">+</div>","null","html-keyboard-response","609","687425","0.0-3.0-0.303","","fixation","","",""
"1088","Set1/109a.jpg","79","image-keyboard-response","610","688529","0.0-3.0-1.303","","","Update","o","true"
"null","<div style=""font-size:60px;"">+</div>","null","html-keyboard-response","611","689062","0.0-3.0-0.304","","fixation","","",""
"962","Set1/021a.jpg","79","image-keyboard-response","612","690043","0.0-3.0-1.304","","","Set_1_Only","o","true"
"null","<div style=""font-size:60px;"">+</div>","null","html-keyboard-response","613","690582","0.0-3.0-0.305","","fixation","","",""
"1083","Set1/142a.jpg","79","image-keyboard-response","614","691714","0.0-3.0-1.305","","","Update","o","true"
"null","<div style=""font-size:60px;"">+</div>","null","html-keyboard-response","615","692228","0.0-3.0-0.306","","fixation","","",""
"1446","Set1/113a.jpg","79","image-keyboard-response","616","693687","0.0-3.0-1.306","","","Update","n","false"
"null","<div style=""font-size:60px;"">+</div>","null","html-keyboard-response","617","694204","0.0-3.0-0.307","","fixation","","",""
"1252","Set1/016a.jpg","79","image-keyboard-response","618","695469","0.0-3.0-1.307","","","Set_1_Only","o","true"
"null","<div style=""font-size:60px;"">+</div>","null","html-keyboard-response","619","695997","0.0-3.0-0.308","","fixation","","",""
"1262","Set1/061a.jpg","79","image-keyboard-response","620","697272","0.0-3.0-1.308","","","Repeat","o","true"
"null","<div style=""font-size:60px;"">+</div>","null","html-keyboard-response","621","697814","0.0-3.0-0.309","","fixation","","",""
"1120","Set1/009a.jpg","79","image-keyboard-response","622","698947","0.0-3.0-1.309","","","Set_1_Only","o","true"
"null","<div style=""font-size:60px;"">+</div>","null","html-keyboard-response","623","699469","0.0-3.0-0.310","","fixation","","",""
"1000","Set1/141a.jpg","79","image-keyboard-response","624","700478","0.0-3.0-1.310","","","Update","o","true"
"null","<div style=""font-size:60px;"">+</div>","null","html-keyboard-response","625","700991","0.0-3.0-0.311","","fixation","","",""
"1001","Set1/011a.jpg","79","image-keyboard-response","626","702006","0.0-3.0-1.311","","","Set_1_Only","o","true"
"null","<div style=""font-size:60px;"">+</div>","null","html-keyboard-response","627","702532","0.0-3.0-0.312","","fixation","","",""
"1013","Set1/113a.jpg","79","image-keyboard-response","628","703554","0.0-3.0-1.312","","","Update","o","true"
"null","<div style=""font-size:60px;"">+</div>","null","html-keyboard-response","629","704080","0.0-3.0-0.313","","fixation","","",""
"1106","Set1/058a.jpg","79","image-keyboard-response","630","705196","0.0-3.0-1.313","","","Repeat","o","true"
"null","<div style=""font-size:60px;"">+</div>","null","html-keyboard-response","631","705721","0.0-3.0-0.314","","fixation","","",""
"1301","Set1/083a.jpg","79","image-keyboard-response","632","707037","0.0-3.0-1.314","","","Repeat","o","true"
"null","<div style=""font-size:60px;"">+</div>","null","html-keyboard-response","633","707568","0.0-3.0-0.315","","fixation","","",""
"1469","Set1/029a.jpg","78","image-keyboard-response","634","709046","0.0-3.0-1.315","","","Set_1_Only","o","false"
"null","<div style=""font-size:60px;"">+</div>","null","html-keyboard-response","635","709554","0.0-3.0-0.316","","fixation","","",""
"1120","Set1/034a.jpg","79","image-keyboard-response","636","710683","0.0-3.0-1.316","","","Repeat","o","true"
"null","<div style=""font-size:60px;"">+</div>","null","html-keyboard-response","637","711195","0.0-3.0-0.317","","fixation","","",""
"1009","Set1/070a.jpg","79","image-keyboard-response","638","712215","0.0-3.0-1.317","","","Repeat","o","true"
"null","<div style=""font-size:60px;"">+</div>","null","html-keyboard-response","639","712726","0.0-3.0-0.318","","fixation","","",""
"1169","Set1/098a.jpg","79","image-keyboard-response","640","713908","0.0-3.0-1.318","","","Update","o","true"
"null","<div style=""font-size:60px;"">+</div>","null","html-keyboard-response","641","714439","0.0-3.0-0.319","","fixation","","",""
"1119","Set1/007a.jpg","79","image-keyboard-response","642","715569","0.0-3.0-1.319","","","Set_1_Only","o","true"
