"rt","stimulus","key_press","trial_type","trial_index","time_elapsed","internal_node_id","responses","test_part","stim_type","correct_response","correct"
"3655","Press any key to begin.","13","html-keyboard-response","0","3658","0.0-0.0","","","","",""
"12476","","","survey-text","1","16138","0.0-1.0","{""Q0"":""121414"",""Q1"":""""}","","","",""
"16828","<p>In this experiment you will see a series of everyday objects presented one at a time at the center of the screen. Each image will be presented twice. </p><p>The first time you see the image, press the N key to indicate that it is a NEW image. The second time you see the image, press the O key to indicate that it is an OLD image.</p><div style='width: 700px;'></div><p>Press any key to begin.</p>","32","html-keyboard-response","2","32968","0.0-2.0","","","","",""
"null","<div style=""font-size:60px;"">+</div>","null","html-keyboard-response","3","35508","0.0-3.0-0.0","","fixation","","",""
"982","Set1/063a.jpg","78","image-keyboard-response","4","36497","0.0-3.0-1.0","","","Repeat","n","true"
"null","<div style=""font-size:60px;"">+</div>","null","html-keyboard-response","5","37021","0.0-3.0-0.1","","fixation","","",""
"1900","Set1/064a.jpg","78","image-keyboard-response","6","38930","0.0-3.0-1.1","","","Repeat","n","true"
"null","<div style=""font-size:60px;"">+</div>","null","html-keyboard-response","7","39432","0.0-3.0-0.2","","fixation","","",""
"1153","Set1/047a.jpg","78","image-keyboard-response","8","40587","0.0-3.0-1.2","","","Repeat","n","true"
"null","<div style=""font-size:60px;"">+</div>","null","html-keyboard-response","9","41094","0.0-3.0-0.3","","fixation","","",""
"865","Set1/025a.jpg","78","image-keyboard-response","10","41963","0.0-3.0-1.3","","","Set_1_Only","n","true"
"null","<div style=""font-size:60px;"">+</div>","null","html-keyboard-response","11","42492","0.0-3.0-0.4","","fixation","","",""
"1119","Set1/146a.jpg","78","image-keyboard-response","12","43613","0.0-3.0-1.4","","","Update","n","true"
"null","<div style=""font-size:60px;"">+</div>","null","html-keyboard-response","13","44136","0.0-3.0-0.5","","fixation","","",""
"853","Set1/020a.jpg","78","image-keyboard-response","14","44993","0.0-3.0-1.5","","","Set_1_Only","n","true"
"null","<div style=""font-size:60px;"">+</div>","null","html-keyboard-response","15","45518","0.0-3.0-0.6","","fixation","","",""
"942","Set1/120a.jpg","78","image-keyboard-response","16","46464","0.0-3.0-1.6","","","Update","n","true"
"null","<div style=""font-size:60px;"">+</div>","null","html-keyboard-response","17","46975","0.0-3.0-0.7","","fixation","","",""
"868","Set1/148a.jpg","78","image-keyboard-response","18","47849","0.0-3.0-1.7","","","Update","n","true"
"null","<div style=""font-size:60px;"">+</div>","null","html-keyboard-response","19","48362","0.0-3.0-0.8","","fixation","","",""
"822","Set1/028a.jpg","78","image-keyboard-response","20","49191","0.0-3.0-1.8","","","Set_1_Only","n","true"
"null","<div style=""font-size:60px;"">+</div>","null","html-keyboard-response","21","49704","0.0-3.0-0.9","","fixation","","",""
"863","Set1/071a.jpg","78","image-keyboard-response","22","50574","0.0-3.0-1.9","","","Repeat","n","true"
"null","<div style=""font-size:60px;"">+</div>","null","html-keyboard-response","23","51093","0.0-3.0-0.10","","fixation","","",""
"1021","Set1/030a.jpg","78","image-keyboard-response","24","52119","0.0-3.0-1.10","","","Set_1_Only","n","true"
"null","<div style=""font-size:60px;"">+</div>","null","html-keyboard-response","25","52623","0.0-3.0-0.11","","fixation","","",""
"991","Set1/037a.jpg","78","image-keyboard-response","26","53616","0.0-3.0-1.11","","","Repeat","n","true"
"null","<div style=""font-size:60px;"">+</div>","null","html-keyboard-response","27","54123","0.0-3.0-0.12","","fixation","","",""
"1077","Set1/120a.jpg","79","image-keyboard-response","28","55201","0.0-3.0-1.12","","","Update","o","true"
"null","<div style=""font-size:60px;"">+</div>","null","html-keyboard-response","29","55716","0.0-3.0-0.13","","fixation","","",""
"968","Set1/005a.jpg","78","image-keyboard-response","30","56688","0.0-3.0-1.13","","","Set_1_Only","n","true"
"null","<div style=""font-size:60px;"">+</div>","null","html-keyboard-response","31","57198","0.0-3.0-0.14","","fixation","","",""
"872","Set1/079a.jpg","78","image-keyboard-response","32","58079","0.0-3.0-1.14","","","Repeat","n","true"
"null","<div style=""font-size:60px;"">+</div>","null","html-keyboard-response","33","58587","0.0-3.0-0.15","","fixation","","",""
"1174","Set1/136a.jpg","78","image-keyboard-response","34","59765","0.0-3.0-1.15","","","Update","n","true"
"null","<div style=""font-size:60px;"">+</div>","null","html-keyboard-response","35","60275","0.0-3.0-0.16","","fixation","","",""
"948","Set1/133a.jpg","78","image-keyboard-response","36","61229","0.0-3.0-1.16","","","Update","n","true"
"null","<div style=""font-size:60px;"">+</div>","null","html-keyboard-response","37","61743","0.0-3.0-0.17","","fixation","","",""
"918","Set1/128a.jpg","78","image-keyboard-response","38","62664","0.0-3.0-1.17","","","Update","n","true"
"null","<div style=""font-size:60px;"">+</div>","null","html-keyboard-response","39","63177","0.0-3.0-0.18","","fixation","","",""
"846","Set1/054a.jpg","78","image-keyboard-response","40","64026","0.0-3.0-1.18","","","Repeat","n","true"
"null","<div style=""font-size:60px;"">+</div>","null","html-keyboard-response","41","64548","0.0-3.0-0.19","","fixation","","",""
"834","Set1/108a.jpg","78","image-keyboard-response","42","65387","0.0-3.0-1.19","","","Update","n","true"
"null","<div style=""font-size:60px;"">+</div>","null","html-keyboard-response","43","65905","0.0-3.0-0.20","","fixation","","",""
"909","Set1/050a.jpg","78","image-keyboard-response","44","66820","0.0-3.0-1.20","","","Repeat","n","true"
"null","<div style=""font-size:60px;"">+</div>","null","html-keyboard-response","45","67327","0.0-3.0-0.21","","fixation","","",""
"1028","Set1/140a.jpg","78","image-keyboard-response","46","68357","0.0-3.0-1.21","","","Update","n","true"
"null","<div style=""font-size:60px;"">+</div>","null","html-keyboard-response","47","68860","0.0-3.0-0.22","","fixation","","",""
"825","Set1/051a.jpg","78","image-keyboard-response","48","69690","0.0-3.0-1.22","","","Repeat","n","true"
"null","<div style=""font-size:60px;"">+</div>","null","html-keyboard-response","49","70219","0.0-3.0-0.23","","fixation","","",""
"821","Set1/063a.jpg","79","image-keyboard-response","50","71040","0.0-3.0-1.23","","","Repeat","o","true"
"null","<div style=""font-size:60px;"">+</div>","null","html-keyboard-response","51","71548","0.0-3.0-0.24","","fixation","","",""
"818","Set1/006a.jpg","78","image-keyboard-response","52","72373","0.0-3.0-1.24","","","Set_1_Only","n","true"
"null","<div style=""font-size:60px;"">+</div>","null","html-keyboard-response","53","72893","0.0-3.0-0.25","","fixation","","",""
"948","Set1/158a.jpg","78","image-keyboard-response","54","73846","0.0-3.0-1.25","","","Update","n","true"
"null","<div style=""font-size:60px;"">+</div>","null","html-keyboard-response","55","74376","0.0-3.0-0.26","","fixation","","",""
"963","Set1/020a.jpg","79","image-keyboard-response","56","75343","0.0-3.0-1.26","","","Set_1_Only","o","true"
"null","<div style=""font-size:60px;"">+</div>","null","html-keyboard-response","57","75846","0.0-3.0-0.27","","fixation","","",""
"937","Set1/082a.jpg","78","image-keyboard-response","58","76790","0.0-3.0-1.27","","","Repeat","n","true"
"null","<div style=""font-size:60px;"">+</div>","null","html-keyboard-response","59","77313","0.0-3.0-0.28","","fixation","","",""
"846","Set1/107a.jpg","78","image-keyboard-response","60","78163","0.0-3.0-1.28","","","Update","n","true"
"null","<div style=""font-size:60px;"">+</div>","null","html-keyboard-response","61","78678","0.0-3.0-0.29","","fixation","","",""
"891","Set1/121a.jpg","78","image-keyboard-response","62","79574","0.0-3.0-1.29","","","Update","n","true"
"null","<div style=""font-size:60px;"">+</div>","null","html-keyboard-response","63","80082","0.0-3.0-0.30","","fixation","","",""
"1177","Set1/085a.jpg","78","image-keyboard-response","64","81266","0.0-3.0-1.30","","","Repeat","n","true"
"null","<div style=""font-size:60px;"">+</div>","null","html-keyboard-response","65","81772","0.0-3.0-0.31","","fixation","","",""
"947","Set1/136a.jpg","79","image-keyboard-response","66","82721","0.0-3.0-1.31","","","Update","o","true"
"null","<div style=""font-size:60px;"">+</div>","null","html-keyboard-response","67","83240","0.0-3.0-0.32","","fixation","","",""
"916","Set1/049a.jpg","78","image-keyboard-response","68","84161","0.0-3.0-1.32","","","Repeat","n","true"
"null","<div style=""font-size:60px;"">+</div>","null","html-keyboard-response","69","84678","0.0-3.0-0.33","","fixation","","",""
"927","Set1/133a.jpg","79","image-keyboard-response","70","85606","0.0-3.0-1.33","","","Update","o","true"
"null","<div style=""font-size:60px;"">+</div>","null","html-keyboard-response","71","86115","0.0-3.0-0.34","","fixation","","",""
"1014","Set1/093a.jpg","78","image-keyboard-response","72","87131","0.0-3.0-1.34","","","Repeat","n","true"
"null","<div style=""font-size:60px;"">+</div>","null","html-keyboard-response","73","87648","0.0-3.0-0.35","","fixation","","",""
"853","Set1/064a.jpg","79","image-keyboard-response","74","88503","0.0-3.0-1.35","","","Repeat","o","true"
"null","<div style=""font-size:60px;"">+</div>","null","html-keyboard-response","75","89007","0.0-3.0-0.36","","fixation","","",""
"1024","Set1/005a.jpg","79","image-keyboard-response","76","90031","0.0-3.0-1.36","","","Set_1_Only","o","true"
"null","<div style=""font-size:60px;"">+</div>","null","html-keyboard-response","77","90546","0.0-3.0-0.37","","fixation","","",""
"825","Set1/128a.jpg","79","image-keyboard-response","78","91373","0.0-3.0-1.37","","","Update","o","true"
"null","<div style=""font-size:60px;"">+</div>","null","html-keyboard-response","79","91881","0.0-3.0-0.38","","fixation","","",""
"953","Set1/044a.jpg","78","image-keyboard-response","80","92839","0.0-3.0-1.38","","","Repeat","n","true"
"null","<div style=""font-size:60px;"">+</div>","null","html-keyboard-response","81","93352","0.0-3.0-0.39","","fixation","","",""
"2035","Set1/037a.jpg","78","image-keyboard-response","82","95392","0.0-3.0-1.39","","","Repeat","o","false"
"null","<div style=""font-size:60px;"">+</div>","null","html-keyboard-response","83","95914","0.0-3.0-0.40","","fixation","","",""
"1179","Set1/088a.jpg","78","image-keyboard-response","84","97098","0.0-3.0-1.40","","","Repeat","n","true"
"null","<div style=""font-size:60px;"">+</div>","null","html-keyboard-response","85","97602","0.0-3.0-0.41","","fixation","","",""
"956","Set1/106a.jpg","78","image-keyboard-response","86","98562","0.0-3.0-1.41","","","Update","n","true"
"null","<div style=""font-size:60px;"">+</div>","null","html-keyboard-response","87","99075","0.0-3.0-0.42","","fixation","","",""
"1298","Set1/031a.jpg","78","image-keyboard-response","88","100378","0.0-3.0-1.42","","","Set_1_Only","n","true"
"null","<div style=""font-size:60px;"">+</div>","null","html-keyboard-response","89","100888","0.0-3.0-0.43","","fixation","","",""
"1429","Set1/160a.jpg","78","image-keyboard-response","90","102324","0.0-3.0-1.43","","","Update","n","true"
"null","<div style=""font-size:60px;"">+</div>","null","html-keyboard-response","91","102841","0.0-3.0-0.44","","fixation","","",""
"762","Set1/025a.jpg","79","image-keyboard-response","92","103606","0.0-3.0-1.44","","","Set_1_Only","o","true"
"null","<div style=""font-size:60px;"">+</div>","null","html-keyboard-response","93","104123","0.0-3.0-0.45","","fixation","","",""
"1310","Set1/088a.jpg","79","image-keyboard-response","94","105433","0.0-3.0-1.45","","","Repeat","o","true"
"null","<div style=""font-size:60px;"">+</div>","null","html-keyboard-response","95","105951","0.0-3.0-0.46","","fixation","","",""
"904","Set1/093a.jpg","79","image-keyboard-response","96","106858","0.0-3.0-1.46","","","Repeat","o","true"
"null","<div style=""font-size:60px;"">+</div>","null","html-keyboard-response","97","107371","0.0-3.0-0.47","","fixation","","",""
"865","Set1/054a.jpg","79","image-keyboard-response","98","108238","0.0-3.0-1.47","","","Repeat","o","true"
"null","<div style=""font-size:60px;"">+</div>","null","html-keyboard-response","99","108748","0.0-3.0-0.48","","fixation","","",""
"911","Set1/105a.jpg","78","image-keyboard-response","100","109662","0.0-3.0-1.48","","","Update","n","true"
"null","<div style=""font-size:60px;"">+</div>","null","html-keyboard-response","101","110168","0.0-3.0-0.49","","fixation","","",""
"1047","Set1/045a.jpg","78","image-keyboard-response","102","111221","0.0-3.0-1.49","","","Repeat","n","true"
"null","<div style=""font-size:60px;"">+</div>","null","html-keyboard-response","103","111737","0.0-3.0-0.50","","fixation","","",""
"1109","Set1/006a.jpg","79","image-keyboard-response","104","112849","0.0-3.0-1.50","","","Set_1_Only","o","true"
"null","<div style=""font-size:60px;"">+</div>","null","html-keyboard-response","105","113357","0.0-3.0-0.51","","fixation","","",""
"897","Set1/140a.jpg","79","image-keyboard-response","106","114256","0.0-3.0-1.51","","","Update","o","true"
"null","<div style=""font-size:60px;"">+</div>","null","html-keyboard-response","107","114779","0.0-3.0-0.52","","fixation","","",""
"891","Set1/027a.jpg","78","image-keyboard-response","108","115674","0.0-3.0-1.52","","","Set_1_Only","n","true"
"null","<div style=""font-size:60px;"">+</div>","null","html-keyboard-response","109","116191","0.0-3.0-0.53","","fixation","","",""
"904","Set1/049a.jpg","79","image-keyboard-response","110","117098","0.0-3.0-1.53","","","Repeat","o","true"
"null","<div style=""font-size:60px;"">+</div>","null","html-keyboard-response","111","117616","0.0-3.0-0.54","","fixation","","",""
"921","Set1/051a.jpg","79","image-keyboard-response","112","118539","0.0-3.0-1.54","","","Repeat","o","true"
"null","<div style=""font-size:60px;"">+</div>","null","html-keyboard-response","113","119067","0.0-3.0-0.55","","fixation","","",""
"718","Set1/028a.jpg","79","image-keyboard-response","114","119788","0.0-3.0-1.55","","","Set_1_Only","o","true"
"null","<div style=""font-size:60px;"">+</div>","null","html-keyboard-response","115","120303","0.0-3.0-0.56","","fixation","","",""
"778","Set1/047a.jpg","79","image-keyboard-response","116","121086","0.0-3.0-1.56","","","Repeat","o","true"
"null","<div style=""font-size:60px;"">+</div>","null","html-keyboard-response","117","121606","0.0-3.0-0.57","","fixation","","",""
"676","Set1/071a.jpg","79","image-keyboard-response","118","122284","0.0-3.0-1.57","","","Repeat","o","true"
"null","<div style=""font-size:60px;"">+</div>","null","html-keyboard-response","119","122809","0.0-3.0-0.58","","fixation","","",""
"709","Set1/108a.jpg","79","image-keyboard-response","120","123522","0.0-3.0-1.58","","","Update","o","true"
"null","<div style=""font-size:60px;"">+</div>","null","html-keyboard-response","121","124045","0.0-3.0-0.59","","fixation","","",""
"1368","Set1/027a.jpg","79","image-keyboard-response","122","125415","0.0-3.0-1.59","","","Set_1_Only","o","true"
"null","<div style=""font-size:60px;"">+</div>","null","html-keyboard-response","123","125926","0.0-3.0-0.60","","fixation","","",""
"944","Set1/044a.jpg","79","image-keyboard-response","124","126876","0.0-3.0-1.60","","","Repeat","o","true"
"null","<div style=""font-size:60px;"">+</div>","null","html-keyboard-response","125","127382","0.0-3.0-0.61","","fixation","","",""
"1581","Set1/045a.jpg","79","image-keyboard-response","126","128970","0.0-3.0-1.61","","","Repeat","o","true"
"null","<div style=""font-size:60px;"">+</div>","null","html-keyboard-response","127","129475","0.0-3.0-0.62","","fixation","","",""
"935","Set1/134a.jpg","78","image-keyboard-response","128","130415","0.0-3.0-1.62","","","Update","n","true"
"null","<div style=""font-size:60px;"">+</div>","null","html-keyboard-response","129","130928","0.0-3.0-0.63","","fixation","","",""
"821","Set1/158a.jpg","79","image-keyboard-response","130","131757","0.0-3.0-1.63","","","Update","o","true"
"null","<div style=""font-size:60px;"">+</div>","null","html-keyboard-response","131","132273","0.0-3.0-0.64","","fixation","","",""
"767","Set1/106a.jpg","79","image-keyboard-response","132","133044","0.0-3.0-1.64","","","Update","o","true"
"null","<div style=""font-size:60px;"">+</div>","null","html-keyboard-response","133","133553","0.0-3.0-0.65","","fixation","","",""
"989","Set1/119a.jpg","78","image-keyboard-response","134","134548","0.0-3.0-1.65","","","Update","n","true"
"null","<div style=""font-size:60px;"">+</div>","null","html-keyboard-response","135","135060","0.0-3.0-0.66","","fixation","","",""
"901","Set1/105a.jpg","79","image-keyboard-response","136","135967","0.0-3.0-1.66","","","Update","o","true"
"null","<div style=""font-size:60px;"">+</div>","null","html-keyboard-response","137","136478","0.0-3.0-0.67","","fixation","","",""
"1730","Set1/119a.jpg","79","image-keyboard-response","138","138210","0.0-3.0-1.67","","","Update","o","true"
"null","<div style=""font-size:60px;"">+</div>","null","html-keyboard-response","139","138716","0.0-3.0-0.68","","fixation","","",""
"781","Set1/148a.jpg","79","image-keyboard-response","140","139506","0.0-3.0-1.68","","","Update","o","true"
"null","<div style=""font-size:60px;"">+</div>","null","html-keyboard-response","141","140010","0.0-3.0-0.69","","fixation","","",""
"1258","Set1/031a.jpg","79","image-keyboard-response","142","141275","0.0-3.0-1.69","","","Set_1_Only","o","true"
"null","<div style=""font-size:60px;"">+</div>","null","html-keyboard-response","143","141792","0.0-3.0-0.70","","fixation","","",""
"758","Set1/050a.jpg","79","image-keyboard-response","144","142557","0.0-3.0-1.70","","","Repeat","o","true"
"null","<div style=""font-size:60px;"">+</div>","null","html-keyboard-response","145","143074","0.0-3.0-0.71","","fixation","","",""
"828","Set1/082a.jpg","79","image-keyboard-response","146","143905","0.0-3.0-1.71","","","Repeat","o","true"
"null","<div style=""font-size:60px;"">+</div>","null","html-keyboard-response","147","144418","0.0-3.0-0.72","","fixation","","",""
"1242","Set1/085a.jpg","79","image-keyboard-response","148","145664","0.0-3.0-1.72","","","Repeat","o","true"
"null","<div style=""font-size:60px;"">+</div>","null","html-keyboard-response","149","146180","0.0-3.0-0.73","","fixation","","",""
"814","Set1/030a.jpg","79","image-keyboard-response","150","146996","0.0-3.0-1.73","","","Set_1_Only","o","true"
"null","<div style=""font-size:60px;"">+</div>","null","html-keyboard-response","151","147511","0.0-3.0-0.74","","fixation","","",""
"993","Set1/160a.jpg","79","image-keyboard-response","152","148508","0.0-3.0-1.74","","","Update","o","true"
"null","<div style=""font-size:60px;"">+</div>","null","html-keyboard-response","153","149012","0.0-3.0-0.75","","fixation","","",""
"1690","Set1/134a.jpg","79","image-keyboard-response","154","150702","0.0-3.0-1.75","","","Update","o","true"
"null","<div style=""font-size:60px;"">+</div>","null","html-keyboard-response","155","151215","0.0-3.0-0.76","","fixation","","",""
"739","Set1/146a.jpg","79","image-keyboard-response","156","151956","0.0-3.0-1.76","","","Update","o","true"
"null","<div style=""font-size:60px;"">+</div>","null","html-keyboard-response","157","152464","0.0-3.0-0.77","","fixation","","",""
"883","Set1/107a.jpg","79","image-keyboard-response","158","153352","0.0-3.0-1.77","","","Update","o","true"
"null","<div style=""font-size:60px;"">+</div>","null","html-keyboard-response","159","153855","0.0-3.0-0.78","","fixation","","",""
"879","Set1/079a.jpg","79","image-keyboard-response","160","154737","0.0-3.0-1.78","","","Repeat","o","true"
"null","<div style=""font-size:60px;"">+</div>","null","html-keyboard-response","161","155245","0.0-3.0-0.79","","fixation","","",""
"775","Set1/121a.jpg","79","image-keyboard-response","162","156024","0.0-3.0-1.79","","","Update","o","true"
"null","<div style=""font-size:60px;"">+</div>","null","html-keyboard-response","163","156527","0.0-3.0-0.80","","fixation","","",""
"1106","Set1/095a.jpg","78","image-keyboard-response","164","157637","0.0-3.0-1.80","","","Repeat","n","true"
"null","<div style=""font-size:60px;"">+</div>","null","html-keyboard-response","165","158152","0.0-3.0-0.81","","fixation","","",""
"1112","Set1/041a.jpg","78","image-keyboard-response","166","159266","0.0-3.0-1.81","","","Repeat","n","true"
"null","<div style=""font-size:60px;"">+</div>","null","html-keyboard-response","167","159795","0.0-3.0-0.82","","fixation","","",""
"1010","Set1/100a.jpg","78","image-keyboard-response","168","160809","0.0-3.0-1.82","","","Update","n","true"
"null","<div style=""font-size:60px;"">+</div>","null","html-keyboard-response","169","161310","0.0-3.0-0.83","","fixation","","",""
"997","Set1/036a.jpg","78","image-keyboard-response","170","162312","0.0-3.0-1.83","","","Repeat","n","true"
"null","<div style=""font-size:60px;"">+</div>","null","html-keyboard-response","171","162828","0.0-3.0-0.84","","fixation","","",""
"1032","Set1/115a.jpg","78","image-keyboard-response","172","163862","0.0-3.0-1.84","","","Update","n","true"
"null","<div style=""font-size:60px;"">+</div>","null","html-keyboard-response","173","164390","0.0-3.0-0.85","","fixation","","",""
"923","Set1/123a.jpg","78","image-keyboard-response","174","165315","0.0-3.0-1.85","","","Update","n","true"
"null","<div style=""font-size:60px;"">+</div>","null","html-keyboard-response","175","165828","0.0-3.0-0.86","","fixation","","",""
"1000","Set1/015a.jpg","78","image-keyboard-response","176","166830","0.0-3.0-1.86","","","Set_1_Only","n","true"
"null","<div style=""font-size:60px;"">+</div>","null","html-keyboard-response","177","167357","0.0-3.0-0.87","","fixation","","",""
"948","Set1/096a.jpg","78","image-keyboard-response","178","168313","0.0-3.0-1.87","","","Repeat","n","true"
"null","<div style=""font-size:60px;"">+</div>","null","html-keyboard-response","179","168828","0.0-3.0-0.88","","fixation","","",""
"1164","Set1/110a.jpg","78","image-keyboard-response","180","169998","0.0-3.0-1.88","","","Update","n","true"
"null","<div style=""font-size:60px;"">+</div>","null","html-keyboard-response","181","170515","0.0-3.0-0.89","","fixation","","",""
"1189","Set1/151a.jpg","78","image-keyboard-response","182","171711","0.0-3.0-1.89","","","Update","n","true"
"null","<div style=""font-size:60px;"">+</div>","null","html-keyboard-response","183","172219","0.0-3.0-0.90","","fixation","","",""
"1023","Set1/035a.jpg","78","image-keyboard-response","184","173250","0.0-3.0-1.90","","","Repeat","n","true"
"null","<div style=""font-size:60px;"">+</div>","null","html-keyboard-response","185","173765","0.0-3.0-0.91","","fixation","","",""
"5424","Set1/026a.jpg","78","image-keyboard-response","186","179198","0.0-3.0-1.91","","","Set_1_Only","n","true"
"null","<div style=""font-size:60px;"">+</div>","null","html-keyboard-response","187","179714","0.0-3.0-0.92","","fixation","","",""
"1168","Set1/067a.jpg","78","image-keyboard-response","188","180888","0.0-3.0-1.92","","","Repeat","n","true"
"null","<div style=""font-size:60px;"">+</div>","null","html-keyboard-response","189","181399","0.0-3.0-0.93","","fixation","","",""
"779","Set1/076a.jpg","78","image-keyboard-response","190","182180","0.0-3.0-1.93","","","Repeat","n","true"
"null","<div style=""font-size:60px;"">+</div>","null","html-keyboard-response","191","182695","0.0-3.0-0.94","","fixation","","",""
"873","Set1/125a.jpg","78","image-keyboard-response","192","183573","0.0-3.0-1.94","","","Update","n","true"
"null","<div style=""font-size:60px;"">+</div>","null","html-keyboard-response","193","184087","0.0-3.0-0.95","","fixation","","",""
"886","Set1/123a.jpg","79","image-keyboard-response","194","184975","0.0-3.0-1.95","","","Update","o","true"
"null","<div style=""font-size:60px;"">+</div>","null","html-keyboard-response","195","185492","0.0-3.0-0.96","","fixation","","",""
"1024","Set1/076a.jpg","79","image-keyboard-response","196","186520","0.0-3.0-1.96","","","Repeat","o","true"
"null","<div style=""font-size:60px;"">+</div>","null","html-keyboard-response","197","187042","0.0-3.0-0.97","","fixation","","",""
"911","Set1/151a.jpg","79","image-keyboard-response","198","187960","0.0-3.0-1.97","","","Update","o","true"
"null","<div style=""font-size:60px;"">+</div>","null","html-keyboard-response","199","188478","0.0-3.0-0.98","","fixation","","",""
"963","Set1/115a.jpg","79","image-keyboard-response","200","189452","0.0-3.0-1.98","","","Update","o","true"
"null","<div style=""font-size:60px;"">+</div>","null","html-keyboard-response","201","189963","0.0-3.0-0.99","","fixation","","",""
"1012","Set1/081a.jpg","78","image-keyboard-response","202","190982","0.0-3.0-1.99","","","Repeat","n","true"
"null","<div style=""font-size:60px;"">+</div>","null","html-keyboard-response","203","191494","0.0-3.0-0.100","","fixation","","",""
"915","Set1/015a.jpg","79","image-keyboard-response","204","192412","0.0-3.0-1.100","","","Set_1_Only","o","true"
"null","<div style=""font-size:60px;"">+</div>","null","html-keyboard-response","205","192916","0.0-3.0-0.101","","fixation","","",""
"865","Set1/035a.jpg","79","image-keyboard-response","206","193786","0.0-3.0-1.101","","","Repeat","o","true"
"null","<div style=""font-size:60px;"">+</div>","null","html-keyboard-response","207","194291","0.0-3.0-0.102","","fixation","","",""
"825","Set1/014a.jpg","78","image-keyboard-response","208","195119","0.0-3.0-1.102","","","Set_1_Only","n","true"
"null","<div style=""font-size:60px;"">+</div>","null","html-keyboard-response","209","195636","0.0-3.0-0.103","","fixation","","",""
"1095","Set1/152a.jpg","78","image-keyboard-response","210","196732","0.0-3.0-1.103","","","Update","n","true"
"null","<div style=""font-size:60px;"">+</div>","null","html-keyboard-response","211","197245","0.0-3.0-0.104","","fixation","","",""
"1252","Set1/114a.jpg","78","image-keyboard-response","212","198499","0.0-3.0-1.104","","","Update","n","true"
"null","<div style=""font-size:60px;"">+</div>","null","html-keyboard-response","213","199014","0.0-3.0-0.105","","fixation","","",""
"1853","Set1/019a.jpg","78","image-keyboard-response","214","200870","0.0-3.0-1.105","","","Set_1_Only","n","true"
"null","<div style=""font-size:60px;"">+</div>","null","html-keyboard-response","215","201373","0.0-3.0-0.106","","fixation","","",""
"978","Set1/013a.jpg","78","image-keyboard-response","216","202354","0.0-3.0-1.106","","","Set_1_Only","n","true"
"null","<div style=""font-size:60px;"">+</div>","null","html-keyboard-response","217","202862","0.0-3.0-0.107","","fixation","","",""
"1439","Set1/053a.jpg","78","image-keyboard-response","218","204306","0.0-3.0-1.107","","","Repeat","n","true"
"null","<div style=""font-size:60px;"">+</div>","null","html-keyboard-response","219","204828","0.0-3.0-0.108","","fixation","","",""
"906","Set1/026a.jpg","78","image-keyboard-response","220","205737","0.0-3.0-1.108","","","Set_1_Only","o","false"
"null","<div style=""font-size:60px;"">+</div>","null","html-keyboard-response","221","206250","0.0-3.0-0.109","","fixation","","",""
"1391","Set1/138a.jpg","78","image-keyboard-response","222","207648","0.0-3.0-1.109","","","Update","n","true"
"null","<div style=""font-size:60px;"">+</div>","null","html-keyboard-response","223","208163","0.0-3.0-0.110","","fixation","","",""
"null","Set1/010a.jpg","null","image-keyboard-response","224","218173","0.0-3.0-1.110","","","Set_1_Only","n","false"
"null","<div style=""font-size:60px;"">+</div>","null","html-keyboard-response","225","218688","0.0-3.0-0.111","","fixation","","",""
"1360","Set1/008a.jpg","78","image-keyboard-response","226","220052","0.0-3.0-1.111","","","Set_1_Only","n","true"
"null","<div style=""font-size:60px;"">+</div>","null","html-keyboard-response","227","220567","0.0-3.0-0.112","","fixation","","",""
"996","Set1/036a.jpg","79","image-keyboard-response","228","221567","0.0-3.0-1.112","","","Repeat","o","true"
"null","<div style=""font-size:60px;"">+</div>","null","html-keyboard-response","229","222082","0.0-3.0-0.113","","fixation","","",""
"809","Set1/081a.jpg","79","image-keyboard-response","230","222895","0.0-3.0-1.113","","","Repeat","o","true"
"null","<div style=""font-size:60px;"">+</div>","null","html-keyboard-response","231","223411","0.0-3.0-0.114","","fixation","","",""
"718","Set1/114a.jpg","79","image-keyboard-response","232","224131","0.0-3.0-1.114","","","Update","o","true"
"null","<div style=""font-size:60px;"">+</div>","null","html-keyboard-response","233","224644","0.0-3.0-0.115","","fixation","","",""
"1303","Set1/156a.jpg","78","image-keyboard-response","234","225951","0.0-3.0-1.115","","","Update","n","true"
"null","<div style=""font-size:60px;"">+</div>","null","html-keyboard-response","235","226459","0.0-3.0-0.116","","fixation","","",""
"893","Set1/056a.jpg","78","image-keyboard-response","236","227357","0.0-3.0-1.116","","","Repeat","n","true"
"null","<div style=""font-size:60px;"">+</div>","null","html-keyboard-response","237","227865","0.0-3.0-0.117","","fixation","","",""
"1618","Set1/150a.jpg","78","image-keyboard-response","238","229485","0.0-3.0-1.117","","","Update","n","true"
"null","<div style=""font-size:60px;"">+</div>","null","html-keyboard-response","239","229989","0.0-3.0-0.118","","fixation","","",""
"881","Set1/152a.jpg","79","image-keyboard-response","240","230874","0.0-3.0-1.118","","","Update","o","true"
"null","<div style=""font-size:60px;"">+</div>","null","html-keyboard-response","241","231396","0.0-3.0-0.119","","fixation","","",""
"896","Set1/157a.jpg","78","image-keyboard-response","242","232294","0.0-3.0-1.119","","","Update","n","true"
"null","<div style=""font-size:60px;"">+</div>","null","html-keyboard-response","243","232804","0.0-3.0-0.120","","fixation","","",""
"941","Set1/059a.jpg","78","image-keyboard-response","244","233748","0.0-3.0-1.120","","","Repeat","n","true"
"null","<div style=""font-size:60px;"">+</div>","null","html-keyboard-response","245","234271","0.0-3.0-0.121","","fixation","","",""
"null","Set1/055a.jpg","null","image-keyboard-response","246","244292","0.0-3.0-1.121","","","Repeat","n","false"
"null","<div style=""font-size:60px;"">+</div>","null","html-keyboard-response","247","244809","0.0-3.0-0.122","","fixation","","",""
"2060","Set1/019a.jpg","79","image-keyboard-response","248","246874","0.0-3.0-1.122","","","Set_1_Only","o","true"
"null","<div style=""font-size:60px;"">+</div>","null","html-keyboard-response","249","247392","0.0-3.0-0.123","","fixation","","",""
"914","Set1/075a.jpg","78","image-keyboard-response","250","248312","0.0-3.0-1.123","","","Repeat","n","true"
"null","<div style=""font-size:60px;"">+</div>","null","html-keyboard-response","251","248841","0.0-3.0-0.124","","fixation","","",""
"783","Set1/048a.jpg","78","image-keyboard-response","252","249630","0.0-3.0-1.124","","","Repeat","n","true"
"null","<div style=""font-size:60px;"">+</div>","null","html-keyboard-response","253","250137","0.0-3.0-0.125","","fixation","","",""
"772","Set1/052a.jpg","78","image-keyboard-response","254","250916","0.0-3.0-1.125","","","Repeat","n","true"
"null","<div style=""font-size:60px;"">+</div>","null","html-keyboard-response","255","251434","0.0-3.0-0.126","","fixation","","",""
"896","Set1/154a.jpg","78","image-keyboard-response","256","252336","0.0-3.0-1.126","","","Update","n","true"
"null","<div style=""font-size:60px;"">+</div>","null","html-keyboard-response","257","252841","0.0-3.0-0.127","","fixation","","",""
"816","Set1/041a.jpg","79","image-keyboard-response","258","253662","0.0-3.0-1.127","","","Repeat","o","true"
"null","<div style=""font-size:60px;"">+</div>","null","html-keyboard-response","259","254184","0.0-3.0-0.128","","fixation","","",""
"935","Set1/010a.jpg","78","image-keyboard-response","260","255124","0.0-3.0-1.128","","","Set_1_Only","o","false"
"null","<div style=""font-size:60px;"">+</div>","null","html-keyboard-response","261","255641","0.0-3.0-0.129","","fixation","","",""
"939","Set1/008a.jpg","79","image-keyboard-response","262","256583","0.0-3.0-1.129","","","Set_1_Only","o","true"
"null","<div style=""font-size:60px;"">+</div>","null","html-keyboard-response","263","257110","0.0-3.0-0.130","","fixation","","",""
"1062","Set1/154a.jpg","79","image-keyboard-response","264","258173","0.0-3.0-1.130","","","Update","o","true"
"null","<div style=""font-size:60px;"">+</div>","null","html-keyboard-response","265","258697","0.0-3.0-0.131","","fixation","","",""
"1398","Set1/048a.jpg","78","image-keyboard-response","266","260098","0.0-3.0-1.131","","","Repeat","o","false"
"null","<div style=""font-size:60px;"">+</div>","null","html-keyboard-response","267","260599","0.0-3.0-0.132","","fixation","","",""
"868","Set1/053a.jpg","79","image-keyboard-response","268","261471","0.0-3.0-1.132","","","Repeat","o","true"
"null","<div style=""font-size:60px;"">+</div>","null","html-keyboard-response","269","261972","0.0-3.0-0.133","","fixation","","",""
"976","Set1/138a.jpg","79","image-keyboard-response","270","262951","0.0-3.0-1.133","","","Update","o","true"
"null","<div style=""font-size:60px;"">+</div>","null","html-keyboard-response","271","263459","0.0-3.0-0.134","","fixation","","",""
"769","Set1/014a.jpg","79","image-keyboard-response","272","264233","0.0-3.0-1.134","","","Set_1_Only","o","true"
"null","<div style=""font-size:60px;"">+</div>","null","html-keyboard-response","273","264737","0.0-3.0-0.135","","fixation","","",""
"905","Set1/075a.jpg","79","image-keyboard-response","274","265646","0.0-3.0-1.135","","","Repeat","o","true"
"null","<div style=""font-size:60px;"">+</div>","null","html-keyboard-response","275","266159","0.0-3.0-0.136","","fixation","","",""
"928","Set1/111a.jpg","78","image-keyboard-response","276","267091","0.0-3.0-1.136","","","Update","n","true"
"null","<div style=""font-size:60px;"">+</div>","null","html-keyboard-response","277","267597","0.0-3.0-0.137","","fixation","","",""
"1000","Set1/056a.jpg","79","image-keyboard-response","278","268606","0.0-3.0-1.137","","","Repeat","o","true"
"null","<div style=""font-size:60px;"">+</div>","null","html-keyboard-response","279","269117","0.0-3.0-0.138","","fixation","","",""
"1105","Set1/003a.jpg","78","image-keyboard-response","280","270229","0.0-3.0-1.138","","","Set_1_Only","n","true"
"null","<div style=""font-size:60px;"">+</div>","null","html-keyboard-response","281","270746","0.0-3.0-0.139","","fixation","","",""
"1110","Set1/125a.jpg","79","image-keyboard-response","282","271863","0.0-3.0-1.139","","","Update","o","true"
"null","<div style=""font-size:60px;"">+</div>","null","html-keyboard-response","283","272380","0.0-3.0-0.140","","fixation","","",""
"1151","Set1/072a.jpg","78","image-keyboard-response","284","273536","0.0-3.0-1.140","","","Repeat","n","true"
"null","<div style=""font-size:60px;"">+</div>","null","html-keyboard-response","285","274052","0.0-3.0-0.141","","fixation","","",""
"1252","Set1/084a.jpg","78","image-keyboard-response","286","275310","0.0-3.0-1.141","","","Repeat","n","true"
"null","<div style=""font-size:60px;"">+</div>","null","html-keyboard-response","287","275818","0.0-3.0-0.142","","fixation","","",""
"870","Set1/156a.jpg","79","image-keyboard-response","288","276695","0.0-3.0-1.142","","","Update","o","true"
"null","<div style=""font-size:60px;"">+</div>","null","html-keyboard-response","289","277208","0.0-3.0-0.143","","fixation","","",""
"2198","Set1/003a.jpg","78","image-keyboard-response","290","279410","0.0-3.0-1.143","","","Set_1_Only","o","false"
"null","<div style=""font-size:60px;"">+</div>","null","html-keyboard-response","291","279944","0.0-3.0-0.144","","fixation","","",""
"1471","Set1/059a.jpg","79","image-keyboard-response","292","281420","0.0-3.0-1.144","","","Repeat","o","true"
"null","<div style=""font-size:60px;"">+</div>","null","html-keyboard-response","293","281928","0.0-3.0-0.145","","fixation","","",""
"995","Set1/110a.jpg","79","image-keyboard-response","294","282930","0.0-3.0-1.145","","","Update","o","true"
"null","<div style=""font-size:60px;"">+</div>","null","html-keyboard-response","295","283447","0.0-3.0-0.146","","fixation","","",""
"1205","Set1/084a.jpg","79","image-keyboard-response","296","284653","0.0-3.0-1.146","","","Repeat","o","true"
"null","<div style=""font-size:60px;"">+</div>","null","html-keyboard-response","297","285165","0.0-3.0-0.147","","fixation","","",""
"785","Set1/072a.jpg","79","image-keyboard-response","298","285951","0.0-3.0-1.147","","","Repeat","o","true"
"null","<div style=""font-size:60px;"">+</div>","null","html-keyboard-response","299","286462","0.0-3.0-0.148","","fixation","","",""
"1201","Set1/127a.jpg","78","image-keyboard-response","300","287667","0.0-3.0-1.148","","","Update","n","true"
"null","<div style=""font-size:60px;"">+</div>","null","html-keyboard-response","301","288182","0.0-3.0-0.149","","fixation","","",""
"1386","Set1/095a.jpg","78","image-keyboard-response","302","289574","0.0-3.0-1.149","","","Repeat","o","false"
"null","<div style=""font-size:60px;"">+</div>","null","html-keyboard-response","303","290088","0.0-3.0-0.150","","fixation","","",""
"939","Set1/013a.jpg","79","image-keyboard-response","304","291030","0.0-3.0-1.150","","","Set_1_Only","o","true"
"null","<div style=""font-size:60px;"">+</div>","null","html-keyboard-response","305","291541","0.0-3.0-0.151","","fixation","","",""
"1002","Set1/067a.jpg","79","image-keyboard-response","306","292550","0.0-3.0-1.151","","","Repeat","o","true"
"null","<div style=""font-size:60px;"">+</div>","null","html-keyboard-response","307","293056","0.0-3.0-0.152","","fixation","","",""
"980","Set1/157a.jpg","79","image-keyboard-response","308","296217","0.0-3.0-1.152","","","Update","o","true"
"null","<div style=""font-size:60px;"">+</div>","null","html-keyboard-response","309","296737","0.0-3.0-0.153","","fixation","","",""
"1895","Set1/127a.jpg","78","image-keyboard-response","310","298634","0.0-3.0-1.153","","","Update","o","false"
"null","<div style=""font-size:60px;"">+</div>","null","html-keyboard-response","311","299152","0.0-3.0-0.154","","fixation","","",""
"783","Set1/052a.jpg","79","image-keyboard-response","312","299937","0.0-3.0-1.154","","","Repeat","o","true"
"null","<div style=""font-size:60px;"">+</div>","null","html-keyboard-response","313","300448","0.0-3.0-0.155","","fixation","","",""
"870","Set1/055a.jpg","78","image-keyboard-response","314","301322","0.0-3.0-1.155","","","Repeat","o","false"
"null","<div style=""font-size:60px;"">+</div>","null","html-keyboard-response","315","301839","0.0-3.0-0.156","","fixation","","",""
"1021","Set1/111a.jpg","79","image-keyboard-response","316","302863","0.0-3.0-1.156","","","Update","o","true"
"null","<div style=""font-size:60px;"">+</div>","null","html-keyboard-response","317","303371","0.0-3.0-0.157","","fixation","","",""
"1028","Set1/150a.jpg","79","image-keyboard-response","318","304403","0.0-3.0-1.157","","","Update","o","true"
"null","<div style=""font-size:60px;"">+</div>","null","html-keyboard-response","319","304918","0.0-3.0-0.158","","fixation","","",""
"993","Set1/100a.jpg","79","image-keyboard-response","320","305914","0.0-3.0-1.158","","","Update","o","true"
"null","<div style=""font-size:60px;"">+</div>","null","html-keyboard-response","321","306434","0.0-3.0-0.159","","fixation","","",""
"877","Set1/096a.jpg","79","image-keyboard-response","322","307315","0.0-3.0-1.159","","","Repeat","o","true"
"null","<div style=""font-size:60px;"">+</div>","null","html-keyboard-response","323","307825","0.0-3.0-0.160","","fixation","","",""
"953","Set1/159a.jpg","78","image-keyboard-response","324","308785","0.0-3.0-1.160","","","Update","n","true"
"null","<div style=""font-size:60px;"">+</div>","null","html-keyboard-response","325","309310","0.0-3.0-0.161","","fixation","","",""
"1083","Set1/074a.jpg","78","image-keyboard-response","326","310396","0.0-3.0-1.161","","","Repeat","n","true"
"null","<div style=""font-size:60px;"">+</div>","null","html-keyboard-response","327","310905","0.0-3.0-0.162","","fixation","","",""
"1508","Set1/060a.jpg","78","image-keyboard-response","328","312415","0.0-3.0-1.162","","","Repeat","n","true"
"null","<div style=""font-size:60px;"">+</div>","null","html-keyboard-response","329","312921","0.0-3.0-0.163","","fixation","","",""
"998","Set1/062a.jpg","78","image-keyboard-response","330","313921","0.0-3.0-1.163","","","Repeat","n","true"
"null","<div style=""font-size:60px;"">+</div>","null","html-keyboard-response","331","314436","0.0-3.0-0.164","","fixation","","",""
"1037","Set1/155a.jpg","78","image-keyboard-response","332","315480","0.0-3.0-1.164","","","Update","n","true"
"null","<div style=""font-size:60px;"">+</div>","null","html-keyboard-response","333","315993","0.0-3.0-0.165","","fixation","","",""
"822","Set1/117a.jpg","78","image-keyboard-response","334","316818","0.0-3.0-1.165","","","Update","n","true"
"null","<div style=""font-size:60px;"">+</div>","null","html-keyboard-response","335","317327","0.0-3.0-0.166","","fixation","","",""
"953","Set1/004a.jpg","78","image-keyboard-response","336","318282","0.0-3.0-1.166","","","Set_1_Only","n","true"
"null","<div style=""font-size:60px;"">+</div>","null","html-keyboard-response","337","318802","0.0-3.0-0.167","","fixation","","",""
"788","Set1/097a.jpg","78","image-keyboard-response","338","319594","0.0-3.0-1.167","","","Update","n","true"
"null","<div style=""font-size:60px;"">+</div>","null","html-keyboard-response","339","320112","0.0-3.0-0.168","","fixation","","",""
"881","Set1/130a.jpg","78","image-keyboard-response","340","320996","0.0-3.0-1.168","","","Update","n","true"
"null","<div style=""font-size:60px;"">+</div>","null","html-keyboard-response","341","321503","0.0-3.0-0.169","","fixation","","",""
"939","Set1/068a.jpg","78","image-keyboard-response","342","322443","0.0-3.0-1.169","","","Repeat","n","true"
"null","<div style=""font-size:60px;"">+</div>","null","html-keyboard-response","343","322956","0.0-3.0-0.170","","fixation","","",""
"806","Set1/137a.jpg","78","image-keyboard-response","344","323764","0.0-3.0-1.170","","","Update","n","true"
"null","<div style=""font-size:60px;"">+</div>","null","html-keyboard-response","345","324284","0.0-3.0-0.171","","fixation","","",""
"977","Set1/097a.jpg","79","image-keyboard-response","346","325264","0.0-3.0-1.171","","","Update","o","true"
"null","<div style=""font-size:60px;"">+</div>","null","html-keyboard-response","347","325767","0.0-3.0-0.172","","fixation","","",""
"997","Set1/147a.jpg","78","image-keyboard-response","348","326769","0.0-3.0-1.172","","","Update","n","true"
"null","<div style=""font-size:60px;"">+</div>","null","html-keyboard-response","349","327299","0.0-3.0-0.173","","fixation","","",""
"956","Set1/155a.jpg","79","image-keyboard-response","350","328259","0.0-3.0-1.173","","","Update","o","true"
"null","<div style=""font-size:60px;"">+</div>","null","html-keyboard-response","351","328785","0.0-3.0-0.174","","fixation","","",""
"1028","Set1/002a.jpg","78","image-keyboard-response","352","329818","0.0-3.0-1.174","","","Set_1_Only","n","true"
"null","<div style=""font-size:60px;"">+</div>","null","html-keyboard-response","353","330331","0.0-3.0-0.175","","fixation","","",""
"997","Set1/033a.jpg","78","image-keyboard-response","354","331331","0.0-3.0-1.175","","","Repeat","n","true"
"null","<div style=""font-size:60px;"">+</div>","null","html-keyboard-response","355","331832","0.0-3.0-0.176","","fixation","","",""
"1851","Set1/102a.jpg","78","image-keyboard-response","356","333688","0.0-3.0-1.176","","","Update","n","true"
"null","<div style=""font-size:60px;"">+</div>","null","html-keyboard-response","357","334207","0.0-3.0-0.177","","fixation","","",""
"977","Set1/057a.jpg","78","image-keyboard-response","358","335187","0.0-3.0-1.177","","","Repeat","n","true"
"null","<div style=""font-size:60px;"">+</div>","null","html-keyboard-response","359","335707","0.0-3.0-0.178","","fixation","","",""
"762","Set1/147a.jpg","79","image-keyboard-response","360","336469","0.0-3.0-1.178","","","Update","o","true"
"null","<div style=""font-size:60px;"">+</div>","null","html-keyboard-response","361","336972","0.0-3.0-0.179","","fixation","","",""
"900","Set1/057a.jpg","79","image-keyboard-response","362","337877","0.0-3.0-1.179","","","Repeat","o","true"
"null","<div style=""font-size:60px;"">+</div>","null","html-keyboard-response","363","338378","0.0-3.0-0.180","","fixation","","",""
"1406","Set1/131a.jpg","78","image-keyboard-response","364","339790","0.0-3.0-1.180","","","Update","n","true"
"null","<div style=""font-size:60px;"">+</div>","null","html-keyboard-response","365","340294","0.0-3.0-0.181","","fixation","","",""
"1341","Set1/032a.jpg","78","image-keyboard-response","366","341639","0.0-3.0-1.181","","","Set_1_Only","n","true"
"null","<div style=""font-size:60px;"">+</div>","null","html-keyboard-response","367","342149","0.0-3.0-0.182","","fixation","","",""
"1261","Set1/065a.jpg","78","image-keyboard-response","368","343415","0.0-3.0-1.182","","","Repeat","n","true"
"null","<div style=""font-size:60px;"">+</div>","null","html-keyboard-response","369","343930","0.0-3.0-0.183","","fixation","","",""
"1252","Set1/149a.jpg","78","image-keyboard-response","370","345187","0.0-3.0-1.183","","","Update","n","true"
"null","<div style=""font-size:60px;"">+</div>","null","html-keyboard-response","371","345697","0.0-3.0-0.184","","fixation","","",""
"882","Set1/065a.jpg","79","image-keyboard-response","372","346581","0.0-3.0-1.184","","","Repeat","o","true"
"null","<div style=""font-size:60px;"">+</div>","null","html-keyboard-response","373","347103","0.0-3.0-0.185","","fixation","","",""
"1238","Set1/089a.jpg","78","image-keyboard-response","374","348345","0.0-3.0-1.185","","","Repeat","n","true"
"null","<div style=""font-size:60px;"">+</div>","null","html-keyboard-response","375","348855","0.0-3.0-0.186","","fixation","","",""
"1706","Set1/144a.jpg","78","image-keyboard-response","376","350564","0.0-3.0-1.186","","","Update","n","true"
"null","<div style=""font-size:60px;"">+</div>","null","html-keyboard-response","377","351073","0.0-3.0-0.187","","fixation","","",""
"1499","Set1/069a.jpg","78","image-keyboard-response","378","352574","0.0-3.0-1.187","","","Repeat","n","true"
"null","<div style=""font-size:60px;"">+</div>","null","html-keyboard-response","379","353077","0.0-3.0-0.188","","fixation","","",""
"911","Set1/129a.jpg","78","image-keyboard-response","380","353995","0.0-3.0-1.188","","","Update","n","true"
"null","<div style=""font-size:60px;"">+</div>","null","html-keyboard-response","381","354527","0.0-3.0-0.189","","fixation","","",""
"808","Set1/032a.jpg","79","image-keyboard-response","382","355340","0.0-3.0-1.189","","","Set_1_Only","o","true"
"null","<div style=""font-size:60px;"">+</div>","null","html-keyboard-response","383","355855","0.0-3.0-0.190","","fixation","","",""
"972","Set1/024a.jpg","78","image-keyboard-response","384","356830","0.0-3.0-1.190","","","Set_1_Only","n","true"
"null","<div style=""font-size:60px;"">+</div>","null","html-keyboard-response","385","357348","0.0-3.0-0.191","","fixation","","",""
"1179","Set1/078a.jpg","78","image-keyboard-response","386","358534","0.0-3.0-1.191","","","Repeat","n","true"
"null","<div style=""font-size:60px;"">+</div>","null","html-keyboard-response","387","359059","0.0-3.0-0.192","","fixation","","",""
"1045","Set1/103a.jpg","78","image-keyboard-response","388","360112","0.0-3.0-1.192","","","Update","n","true"
"null","<div style=""font-size:60px;"">+</div>","null","html-keyboard-response","389","360623","0.0-3.0-0.193","","fixation","","",""
"813","Set1/130a.jpg","79","image-keyboard-response","390","361440","0.0-3.0-1.193","","","Update","o","true"
"null","<div style=""font-size:60px;"">+</div>","null","html-keyboard-response","391","361968","0.0-3.0-0.194","","fixation","","",""
"1059","Set1/022a.jpg","78","image-keyboard-response","392","363035","0.0-3.0-1.194","","","Set_1_Only","n","true"
"null","<div style=""font-size:60px;"">+</div>","null","html-keyboard-response","393","363546","0.0-3.0-0.195","","fixation","","",""
"1011","Set1/124a.jpg","78","image-keyboard-response","394","364564","0.0-3.0-1.195","","","Update","n","true"
"null","<div style=""font-size:60px;"">+</div>","null","html-keyboard-response","395","365077","0.0-3.0-0.196","","fixation","","",""
"858","Set1/068a.jpg","79","image-keyboard-response","396","365942","0.0-3.0-1.196","","","Repeat","o","true"
"null","<div style=""font-size:60px;"">+</div>","null","html-keyboard-response","397","366454","0.0-3.0-0.197","","fixation","","",""
"1293","Set1/078a.jpg","79","image-keyboard-response","398","367749","0.0-3.0-1.197","","","Repeat","o","true"
"null","<div style=""font-size:60px;"">+</div>","null","html-keyboard-response","399","368266","0.0-3.0-0.198","","fixation","","",""
"809","Set1/137a.jpg","79","image-keyboard-response","400","369077","0.0-3.0-1.198","","","Update","o","true"
"null","<div style=""font-size:60px;"">+</div>","null","html-keyboard-response","401","369578","0.0-3.0-0.199","","fixation","","",""
"1014","Set1/118a.jpg","78","image-keyboard-response","402","370597","0.0-3.0-1.199","","","Update","n","true"
"null","<div style=""font-size:60px;"">+</div>","null","html-keyboard-response","403","371112","0.0-3.0-0.200","","fixation","","",""
"1156","Set1/149a.jpg","79","image-keyboard-response","404","372273","0.0-3.0-1.200","","","Update","o","true"
"null","<div style=""font-size:60px;"">+</div>","null","html-keyboard-response","405","372781","0.0-3.0-0.201","","fixation","","",""
"926","Set1/002a.jpg","79","image-keyboard-response","406","373711","0.0-3.0-1.201","","","Set_1_Only","o","true"
"null","<div style=""font-size:60px;"">+</div>","null","html-keyboard-response","407","374219","0.0-3.0-0.202","","fixation","","",""
"1331","Set1/103a.jpg","79","image-keyboard-response","408","375557","0.0-3.0-1.202","","","Update","o","true"
"null","<div style=""font-size:60px;"">+</div>","null","html-keyboard-response","409","376080","0.0-3.0-0.203","","fixation","","",""
"1003","Set1/012a.jpg","78","image-keyboard-response","410","377089","0.0-3.0-1.203","","","Set_1_Only","n","true"
"null","<div style=""font-size:60px;"">+</div>","null","html-keyboard-response","411","377611","0.0-3.0-0.204","","fixation","","",""
"1091","Set1/104a.jpg","78","image-keyboard-response","412","378704","0.0-3.0-1.204","","","Update","n","true"
"null","<div style=""font-size:60px;"">+</div>","null","html-keyboard-response","413","379208","0.0-3.0-0.205","","fixation","","",""
"1000","Set1/080a.jpg","78","image-keyboard-response","414","380214","0.0-3.0-1.205","","","Repeat","n","true"
"null","<div style=""font-size:60px;"">+</div>","null","html-keyboard-response","415","380730","0.0-3.0-0.206","","fixation","","",""
"940","Set1/040a.jpg","78","image-keyboard-response","416","381672","0.0-3.0-1.206","","","Repeat","n","true"
"null","<div style=""font-size:60px;"">+</div>","null","html-keyboard-response","417","382177","0.0-3.0-0.207","","fixation","","",""
"776","Set1/145a.jpg","78","image-keyboard-response","418","382958","0.0-3.0-1.207","","","Update","n","true"
"null","<div style=""font-size:60px;"">+</div>","null","html-keyboard-response","419","383462","0.0-3.0-0.208","","fixation","","",""
"889","Set1/004a.jpg","79","image-keyboard-response","420","384357","0.0-3.0-1.208","","","Set_1_Only","o","true"
"null","<div style=""font-size:60px;"">+</div>","null","html-keyboard-response","421","384874","0.0-3.0-0.209","","fixation","","",""
"1009","Set1/073a.jpg","78","image-keyboard-response","422","385888","0.0-3.0-1.209","","","Repeat","n","true"
"null","<div style=""font-size:60px;"">+</div>","null","html-keyboard-response","423","386396","0.0-3.0-0.210","","fixation","","",""
"951","Set1/144a.jpg","79","image-keyboard-response","424","387350","0.0-3.0-1.210","","","Update","o","true"
"null","<div style=""font-size:60px;"">+</div>","null","html-keyboard-response","425","387865","0.0-3.0-0.211","","fixation","","",""
"1473","Set1/145a.jpg","78","image-keyboard-response","426","389338","0.0-3.0-1.211","","","Update","o","false"
"null","<div style=""font-size:60px;"">+</div>","null","html-keyboard-response","427","389865","0.0-3.0-0.212","","fixation","","",""
"1338","Set1/124a.jpg","79","image-keyboard-response","428","391205","0.0-3.0-1.212","","","Update","o","true"
"null","<div style=""font-size:60px;"">+</div>","null","html-keyboard-response","429","391709","0.0-3.0-0.213","","fixation","","",""
"1016","Set1/040a.jpg","79","image-keyboard-response","430","392732","0.0-3.0-1.213","","","Repeat","o","true"
"null","<div style=""font-size:60px;"">+</div>","null","html-keyboard-response","431","393236","0.0-3.0-0.214","","fixation","","",""
"916","Set1/069a.jpg","79","image-keyboard-response","432","394158","0.0-3.0-1.214","","","Repeat","o","true"
"null","<div style=""font-size:60px;"">+</div>","null","html-keyboard-response","433","394664","0.0-3.0-0.215","","fixation","","",""
"1187","Set1/143a.jpg","78","image-keyboard-response","434","395856","0.0-3.0-1.215","","","Update","n","true"
"null","<div style=""font-size:60px;"">+</div>","null","html-keyboard-response","435","396366","0.0-3.0-0.216","","fixation","","",""
"857","Set1/024a.jpg","79","image-keyboard-response","436","397226","0.0-3.0-1.216","","","Set_1_Only","o","true"
"null","<div style=""font-size:60px;"">+</div>","null","html-keyboard-response","437","397742","0.0-3.0-0.217","","fixation","","",""
"764","Set1/131a.jpg","79","image-keyboard-response","438","398513","0.0-3.0-1.217","","","Update","o","true"
"null","<div style=""font-size:60px;"">+</div>","null","html-keyboard-response","439","399038","0.0-3.0-0.218","","fixation","","",""
"899","Set1/094a.jpg","78","image-keyboard-response","440","399947","0.0-3.0-1.218","","","Repeat","n","true"
"null","<div style=""font-size:60px;"">+</div>","null","html-keyboard-response","441","400468","0.0-3.0-0.219","","fixation","","",""
"811","Set1/104a.jpg","79","image-keyboard-response","442","401280","0.0-3.0-1.219","","","Update","o","true"
"null","<div style=""font-size:60px;"">+</div>","null","html-keyboard-response","443","401797","0.0-3.0-0.220","","fixation","","",""
"1123","Set1/080a.jpg","79","image-keyboard-response","444","402921","0.0-3.0-1.220","","","Repeat","o","true"
"null","<div style=""font-size:60px;"">+</div>","null","html-keyboard-response","445","403427","0.0-3.0-0.221","","fixation","","",""
"869","Set1/060a.jpg","79","image-keyboard-response","446","404303","0.0-3.0-1.221","","","Repeat","o","true"
"null","<div style=""font-size:60px;"">+</div>","null","html-keyboard-response","447","404813","0.0-3.0-0.222","","fixation","","",""
"823","Set1/129a.jpg","78","image-keyboard-response","448","405639","0.0-3.0-1.222","","","Update","o","false"
"null","<div style=""font-size:60px;"">+</div>","null","html-keyboard-response","449","406156","0.0-3.0-0.223","","fixation","","",""
"1133","Set1/089a.jpg","79","image-keyboard-response","450","407298","0.0-3.0-1.223","","","Repeat","o","true"
"null","<div style=""font-size:60px;"">+</div>","null","html-keyboard-response","451","407828","0.0-3.0-0.224","","fixation","","",""
"986","Set1/159a.jpg","79","image-keyboard-response","452","408818","0.0-3.0-1.224","","","Update","o","true"
"null","<div style=""font-size:60px;"">+</div>","null","html-keyboard-response","453","409329","0.0-3.0-0.225","","fixation","","",""
"1186","Set1/135a.jpg","78","image-keyboard-response","454","410520","0.0-3.0-1.225","","","Update","n","true"
"null","<div style=""font-size:60px;"">+</div>","null","html-keyboard-response","455","411033","0.0-3.0-0.226","","fixation","","",""
"1086","Set1/116a.jpg","78","image-keyboard-response","456","412122","0.0-3.0-1.226","","","Update","n","true"
"null","<div style=""font-size:60px;"">+</div>","null","html-keyboard-response","457","412641","0.0-3.0-0.227","","fixation","","",""
"874","Set1/102a.jpg","79","image-keyboard-response","458","413522","0.0-3.0-1.227","","","Update","o","true"
"null","<div style=""font-size:60px;"">+</div>","null","html-keyboard-response","459","414047","0.0-3.0-0.228","","fixation","","",""
"861","Set1/022a.jpg","79","image-keyboard-response","460","414912","0.0-3.0-1.228","","","Set_1_Only","o","true"
"null","<div style=""font-size:60px;"">+</div>","null","html-keyboard-response","461","415424","0.0-3.0-0.229","","fixation","","",""
"786","Set1/094a.jpg","79","image-keyboard-response","462","416217","0.0-3.0-1.229","","","Repeat","o","true"
"null","<div style=""font-size:60px;"">+</div>","null","html-keyboard-response","463","416737","0.0-3.0-0.230","","fixation","","",""
"797","Set1/118a.jpg","79","image-keyboard-response","464","417536","0.0-3.0-1.230","","","Update","o","true"
"null","<div style=""font-size:60px;"">+</div>","null","html-keyboard-response","465","418049","0.0-3.0-0.231","","fixation","","",""
"785","Set1/033a.jpg","79","image-keyboard-response","466","418844","0.0-3.0-1.231","","","Repeat","o","true"
"null","<div style=""font-size:60px;"">+</div>","null","html-keyboard-response","467","419362","0.0-3.0-0.232","","fixation","","",""
"1699","Set1/117a.jpg","79","image-keyboard-response","468","421068","0.0-3.0-1.232","","","Update","o","true"
"null","<div style=""font-size:60px;"">+</div>","null","html-keyboard-response","469","421599","0.0-3.0-0.233","","fixation","","",""
"1684","Set1/135a.jpg","78","image-keyboard-response","470","423285","0.0-3.0-1.233","","","Update","o","false"
"null","<div style=""font-size:60px;"">+</div>","null","html-keyboard-response","471","423804","0.0-3.0-0.234","","fixation","","",""
"984","Set1/116a.jpg","79","image-keyboard-response","472","424795","0.0-3.0-1.234","","","Update","o","true"
"null","<div style=""font-size:60px;"">+</div>","null","html-keyboard-response","473","425320","0.0-3.0-0.235","","fixation","","",""
"795","Set1/143a.jpg","79","image-keyboard-response","474","426121","0.0-3.0-1.235","","","Update","o","true"
"null","<div style=""font-size:60px;"">+</div>","null","html-keyboard-response","475","426646","0.0-3.0-0.236","","fixation","","",""
"907","Set1/074a.jpg","79","image-keyboard-response","476","427562","0.0-3.0-1.236","","","Repeat","o","true"
"null","<div style=""font-size:60px;"">+</div>","null","html-keyboard-response","477","428084","0.0-3.0-0.237","","fixation","","",""
"930","Set1/012a.jpg","79","image-keyboard-response","478","429021","0.0-3.0-1.237","","","Set_1_Only","o","true"
"null","<div style=""font-size:60px;"">+</div>","null","html-keyboard-response","479","429539","0.0-3.0-0.238","","fixation","","",""
"736","Set1/062a.jpg","79","image-keyboard-response","480","430282","0.0-3.0-1.238","","","Repeat","o","true"
"null","<div style=""font-size:60px;"">+</div>","null","html-keyboard-response","481","430788","0.0-3.0-0.239","","fixation","","",""
"751","Set1/073a.jpg","79","image-keyboard-response","482","431546","0.0-3.0-1.239","","","Repeat","o","true"
"null","<div style=""font-size:60px;"">+</div>","null","html-keyboard-response","483","432066","0.0-3.0-0.240","","fixation","","",""
"1205","Set1/029a.jpg","78","image-keyboard-response","484","433273","0.0-3.0-1.240","","","Set_1_Only","n","true"
"null","<div style=""font-size:60px;"">+</div>","null","html-keyboard-response","485","433788","0.0-3.0-0.241","","fixation","","",""
"1277","Set1/098a.jpg","78","image-keyboard-response","486","435072","0.0-3.0-1.241","","","Update","n","true"
"null","<div style=""font-size:60px;"">+</div>","null","html-keyboard-response","487","435587","0.0-3.0-0.242","","fixation","","",""
"1224","Set1/086a.jpg","78","image-keyboard-response","488","436816","0.0-3.0-1.242","","","Repeat","n","true"
"null","<div style=""font-size:60px;"">+</div>","null","html-keyboard-response","489","437334","0.0-3.0-0.243","","fixation","","",""
"957","Set1/070a.jpg","78","image-keyboard-response","490","438298","0.0-3.0-1.243","","","Repeat","n","true"
"null","<div style=""font-size:60px;"">+</div>","null","html-keyboard-response","491","438806","0.0-3.0-0.244","","fixation","","",""
"1080","Set1/091a.jpg","78","image-keyboard-response","492","439891","0.0-3.0-1.244","","","Repeat","n","true"
"null","<div style=""font-size:60px;"">+</div>","null","html-keyboard-response","493","440403","0.0-3.0-0.245","","fixation","","",""
"1055","Set1/043a.jpg","78","image-keyboard-response","494","441461","0.0-3.0-1.245","","","Repeat","n","true"
"null","<div style=""font-size:60px;"">+</div>","null","html-keyboard-response","495","441981","0.0-3.0-0.246","","fixation","","",""
"867","Set1/083a.jpg","78","image-keyboard-response","496","442851","0.0-3.0-1.246","","","Repeat","n","true"
"null","<div style=""font-size:60px;"">+</div>","null","html-keyboard-response","497","443357","0.0-3.0-0.247","","fixation","","",""
"948","Set1/011a.jpg","78","image-keyboard-response","498","444310","0.0-3.0-1.247","","","Set_1_Only","n","true"
"null","<div style=""font-size:60px;"">+</div>","null","html-keyboard-response","499","444825","0.0-3.0-0.248","","fixation","","",""
"812","Set1/142a.jpg","78","image-keyboard-response","500","445644","0.0-3.0-1.248","","","Update","n","true"
"null","<div style=""font-size:60px;"">+</div>","null","html-keyboard-response","501","446161","0.0-3.0-0.249","","fixation","","",""
"910","Set1/061a.jpg","78","image-keyboard-response","502","447075","0.0-3.0-1.249","","","Repeat","n","true"
"null","<div style=""font-size:60px;"">+</div>","null","html-keyboard-response","503","447592","0.0-3.0-0.250","","fixation","","",""
"1088","Set1/007a.jpg","78","image-keyboard-response","504","448685","0.0-3.0-1.250","","","Set_1_Only","n","true"
"null","<div style=""font-size:60px;"">+</div>","null","html-keyboard-response","505","449201","0.0-3.0-0.251","","fixation","","",""
"877","Set1/039a.jpg","78","image-keyboard-response","506","450080","0.0-3.0-1.251","","","Repeat","n","true"
"null","<div style=""font-size:60px;"">+</div>","null","html-keyboard-response","507","450601","0.0-3.0-0.252","","fixation","","",""
"1574","Set1/023a.jpg","78","image-keyboard-response","508","452180","0.0-3.0-1.252","","","Set_1_Only","n","true"
"null","<div style=""font-size:60px;"">+</div>","null","html-keyboard-response","509","452695","0.0-3.0-0.253","","fixation","","",""
"1037","Set1/001a.jpg","78","image-keyboard-response","510","453737","0.0-3.0-1.253","","","Set_1_Only","n","true"
"null","<div style=""font-size:60px;"">+</div>","null","html-keyboard-response","511","454247","0.0-3.0-0.254","","fixation","","",""
"1039","Set1/038a.jpg","78","image-keyboard-response","512","455291","0.0-3.0-1.254","","","Repeat","n","true"
"null","<div style=""font-size:60px;"">+</div>","null","html-keyboard-response","513","455811","0.0-3.0-0.255","","fixation","","",""
"935","Set1/126a.jpg","78","image-keyboard-response","514","456751","0.0-3.0-1.255","","","Update","n","true"
"null","<div style=""font-size:60px;"">+</div>","null","html-keyboard-response","515","457280","0.0-3.0-0.256","","fixation","","",""
"851","Set1/021a.jpg","78","image-keyboard-response","516","458135","0.0-3.0-1.256","","","Set_1_Only","n","true"
"null","<div style=""font-size:60px;"">+</div>","null","html-keyboard-response","517","458644","0.0-3.0-0.257","","fixation","","",""
"838","Set1/109a.jpg","78","image-keyboard-response","518","459490","0.0-3.0-1.257","","","Update","n","true"
"null","<div style=""font-size:60px;"">+</div>","null","html-keyboard-response","519","459991","0.0-3.0-0.258","","fixation","","",""
"898","Set1/099a.jpg","78","image-keyboard-response","520","460891","0.0-3.0-1.258","","","Update","n","true"
"null","<div style=""font-size:60px;"">+</div>","null","html-keyboard-response","521","461405","0.0-3.0-0.259","","fixation","","",""
"841","Set1/122a.jpg","78","image-keyboard-response","522","462254","0.0-3.0-1.259","","","Update","n","true"
"null","<div style=""font-size:60px;"">+</div>","null","html-keyboard-response","523","462767","0.0-3.0-0.260","","fixation","","",""
"915","Set1/023a.jpg","79","image-keyboard-response","524","463686","0.0-3.0-1.260","","","Set_1_Only","o","true"
"null","<div style=""font-size:60px;"">+</div>","null","html-keyboard-response","525","464189","0.0-3.0-0.261","","fixation","","",""
"870","Set1/017a.jpg","78","image-keyboard-response","526","465065","0.0-3.0-1.261","","","Set_1_Only","n","true"
"null","<div style=""font-size:60px;"">+</div>","null","html-keyboard-response","527","465581","0.0-3.0-0.262","","fixation","","",""
"1021","Set1/132a.jpg","78","image-keyboard-response","528","466609","0.0-3.0-1.262","","","Update","n","true"
"null","<div style=""font-size:60px;"">+</div>","null","html-keyboard-response","529","467112","0.0-3.0-0.263","","fixation","","",""
"841","Set1/042a.jpg","78","image-keyboard-response","530","467956","0.0-3.0-1.263","","","Repeat","n","true"
"null","<div style=""font-size:60px;"">+</div>","null","html-keyboard-response","531","468487","0.0-3.0-0.264","","fixation","","",""
"1009","Set1/087a.jpg","78","image-keyboard-response","532","469503","0.0-3.0-1.264","","","Repeat","n","true"
"null","<div style=""font-size:60px;"">+</div>","null","html-keyboard-response","533","470019","0.0-3.0-0.265","","fixation","","",""
"961","Set1/101a.jpg","78","image-keyboard-response","534","470982","0.0-3.0-1.265","","","Update","n","true"
"null","<div style=""font-size:60px;"">+</div>","null","html-keyboard-response","535","471504","0.0-3.0-0.266","","fixation","","",""
"844","Set1/066a.jpg","78","image-keyboard-response","536","472352","0.0-3.0-1.266","","","Repeat","n","true"
"null","<div style=""font-size:60px;"">+</div>","null","html-keyboard-response","537","472874","0.0-3.0-0.267","","fixation","","",""
"867","Set1/091a.jpg","79","image-keyboard-response","538","473746","0.0-3.0-1.267","","","Repeat","o","true"
"null","<div style=""font-size:60px;"">+</div>","null","html-keyboard-response","539","474270","0.0-3.0-0.268","","fixation","","",""
"1084","Set1/077a.jpg","78","image-keyboard-response","540","475355","0.0-3.0-1.268","","","Repeat","n","true"
"null","<div style=""font-size:60px;"">+</div>","null","html-keyboard-response","541","475863","0.0-3.0-0.269","","fixation","","",""
"917","Set1/042a.jpg","79","image-keyboard-response","542","476784","0.0-3.0-1.269","","","Repeat","o","true"
"null","<div style=""font-size:60px;"">+</div>","null","html-keyboard-response","543","477301","0.0-3.0-0.270","","fixation","","",""
"1102","Set1/018a.jpg","78","image-keyboard-response","544","478408","0.0-3.0-1.270","","","Set_1_Only","n","true"
"null","<div style=""font-size:60px;"">+</div>","null","html-keyboard-response","545","478911","0.0-3.0-0.271","","fixation","","",""
"1225","Set1/058a.jpg","78","image-keyboard-response","546","480137","0.0-3.0-1.271","","","Repeat","n","true"
"null","<div style=""font-size:60px;"">+</div>","null","html-keyboard-response","547","480644","0.0-3.0-0.272","","fixation","","",""
"918","Set1/132a.jpg","79","image-keyboard-response","548","481566","0.0-3.0-1.272","","","Update","o","true"
"null","<div style=""font-size:60px;"">+</div>","null","html-keyboard-response","549","482082","0.0-3.0-0.273","","fixation","","",""
"781","Set1/038a.jpg","79","image-keyboard-response","550","482870","0.0-3.0-1.273","","","Repeat","o","true"
"null","<div style=""font-size:60px;"">+</div>","null","html-keyboard-response","551","483380","0.0-3.0-0.274","","fixation","","",""
"784","Set1/066a.jpg","79","image-keyboard-response","552","484166","0.0-3.0-1.274","","","Repeat","o","true"
"null","<div style=""font-size:60px;"">+</div>","null","html-keyboard-response","553","484683","0.0-3.0-0.275","","fixation","","",""
"743","Set1/099a.jpg","79","image-keyboard-response","554","485429","0.0-3.0-1.275","","","Update","o","true"
"null","<div style=""font-size:60px;"">+</div>","null","html-keyboard-response","555","485951","0.0-3.0-0.276","","fixation","","",""
"724","Set1/126a.jpg","79","image-keyboard-response","556","486678","0.0-3.0-1.276","","","Update","o","true"
"null","<div style=""font-size:60px;"">+</div>","null","html-keyboard-response","557","487184","0.0-3.0-0.277","","fixation","","",""
"903","Set1/009a.jpg","78","image-keyboard-response","558","488094","0.0-3.0-1.277","","","Set_1_Only","n","true"
"null","<div style=""font-size:60px;"">+</div>","null","html-keyboard-response","559","488606","0.0-3.0-0.278","","fixation","","",""
"1000","Set1/046a.jpg","78","image-keyboard-response","560","489616","0.0-3.0-1.278","","","Repeat","n","true"
"null","<div style=""font-size:60px;"">+</div>","null","html-keyboard-response","561","490138","0.0-3.0-0.279","","fixation","","",""
"1020","Set1/039a.jpg","79","image-keyboard-response","562","491165","0.0-3.0-1.279","","","Repeat","o","true"
"null","<div style=""font-size:60px;"">+</div>","null","html-keyboard-response","563","491669","0.0-3.0-0.280","","fixation","","",""
"836","Set1/001a.jpg","79","image-keyboard-response","564","492508","0.0-3.0-1.280","","","Set_1_Only","o","true"
"null","<div style=""font-size:60px;"">+</div>","null","html-keyboard-response","565","493014","0.0-3.0-0.281","","fixation","","",""
"1381","Set1/122a.jpg","79","image-keyboard-response","566","494397","0.0-3.0-1.281","","","Update","o","true"
"null","<div style=""font-size:60px;"">+</div>","null","html-keyboard-response","567","494905","0.0-3.0-0.282","","fixation","","",""
"2934","Set1/086a.jpg","79","image-keyboard-response","568","497846","0.0-3.0-1.282","","","Repeat","o","true"
"null","<div style=""font-size:60px;"">+</div>","null","html-keyboard-response","569","498373","0.0-3.0-0.283","","fixation","","",""
"832","Set1/046a.jpg","79","image-keyboard-response","570","499208","0.0-3.0-1.283","","","Repeat","o","true"
"null","<div style=""font-size:60px;"">+</div>","null","html-keyboard-response","571","499737","0.0-3.0-0.284","","fixation","","",""
"846","Set1/043a.jpg","79","image-keyboard-response","572","500592","0.0-3.0-1.284","","","Repeat","o","true"
"null","<div style=""font-size:60px;"">+</div>","null","html-keyboard-response","573","501096","0.0-3.0-0.285","","fixation","","",""
"1019","Set1/016a.jpg","78","image-keyboard-response","574","502119","0.0-3.0-1.285","","","Set_1_Only","n","true"
"null","<div style=""font-size:60px;"">+</div>","null","html-keyboard-response","575","502644","0.0-3.0-0.286","","fixation","","",""
"930","Set1/090a.jpg","78","image-keyboard-response","576","503578","0.0-3.0-1.286","","","Repeat","n","true"
"null","<div style=""font-size:60px;"">+</div>","null","html-keyboard-response","577","504107","0.0-3.0-0.287","","fixation","","",""
"986","Set1/141a.jpg","78","image-keyboard-response","578","505096","0.0-3.0-1.287","","","Update","n","true"
"null","<div style=""font-size:60px;"">+</div>","null","html-keyboard-response","579","505613","0.0-3.0-0.288","","fixation","","",""
"959","Set1/090a.jpg","78","image-keyboard-response","580","506574","0.0-3.0-1.288","","","Repeat","o","false"
"null","<div style=""font-size:60px;"">+</div>","null","html-keyboard-response","581","507098","0.0-3.0-0.289","","fixation","","",""
"874","Set1/139a.jpg","78","image-keyboard-response","582","507975","0.0-3.0-1.289","","","Update","n","true"
"null","<div style=""font-size:60px;"">+</div>","null","html-keyboard-response","583","508489","0.0-3.0-0.290","","fixation","","",""
"755","Set1/101a.jpg","79","image-keyboard-response","584","509252","0.0-3.0-1.290","","","Update","o","true"
"null","<div style=""font-size:60px;"">+</div>","null","html-keyboard-response","585","509776","0.0-3.0-0.291","","fixation","","",""
"1364","Set1/092a.jpg","78","image-keyboard-response","586","511142","0.0-3.0-1.291","","","Repeat","n","true"
"null","<div style=""font-size:60px;"">+</div>","null","html-keyboard-response","587","511660","0.0-3.0-0.292","","fixation","","",""
"846","Set1/087a.jpg","79","image-keyboard-response","588","512515","0.0-3.0-1.292","","","Repeat","o","true"
"null","<div style=""font-size:60px;"">+</div>","null","html-keyboard-response","589","513019","0.0-3.0-0.293","","fixation","","",""
"1232","Set1/034a.jpg","78","image-keyboard-response","590","514256","0.0-3.0-1.293","","","Repeat","n","true"
"null","<div style=""font-size:60px;"">+</div>","null","html-keyboard-response","591","514771","0.0-3.0-0.294","","fixation","","",""
"1269","Set1/153a.jpg","78","image-keyboard-response","592","516049","0.0-3.0-1.294","","","Update","n","true"
"null","<div style=""font-size:60px;"">+</div>","null","html-keyboard-response","593","516553","0.0-3.0-0.295","","fixation","","",""
"1065","Set1/092a.jpg","79","image-keyboard-response","594","517618","0.0-3.0-1.295","","","Repeat","o","true"
"null","<div style=""font-size:60px;"">+</div>","null","html-keyboard-response","595","518130","0.0-3.0-0.296","","fixation","","",""
"739","Set1/077a.jpg","79","image-keyboard-response","596","518877","0.0-3.0-1.296","","","Repeat","o","true"
"null","<div style=""font-size:60px;"">+</div>","null","html-keyboard-response","597","519397","0.0-3.0-0.297","","fixation","","",""
"1058","Set1/112a.jpg","78","image-keyboard-response","598","520459","0.0-3.0-1.297","","","Update","n","true"
"null","<div style=""font-size:60px;"">+</div>","null","html-keyboard-response","599","520977","0.0-3.0-0.298","","fixation","","",""
"1029","Set1/018a.jpg","79","image-keyboard-response","600","522010","0.0-3.0-1.298","","","Set_1_Only","o","true"
"null","<div style=""font-size:60px;"">+</div>","null","html-keyboard-response","601","522524","0.0-3.0-0.299","","fixation","","",""
"938","Set1/139a.jpg","79","image-keyboard-response","602","523471","0.0-3.0-1.299","","","Update","o","true"
"null","<div style=""font-size:60px;"">+</div>","null","html-keyboard-response","603","523993","0.0-3.0-0.300","","fixation","","",""
"897","Set1/153a.jpg","79","image-keyboard-response","604","524893","0.0-3.0-1.300","","","Update","o","true"
"null","<div style=""font-size:60px;"">+</div>","null","html-keyboard-response","605","525415","0.0-3.0-0.301","","fixation","","",""
"1074","Set1/017a.jpg","79","image-keyboard-response","606","526496","0.0-3.0-1.301","","","Set_1_Only","o","true"
"null","<div style=""font-size:60px;"">+</div>","null","html-keyboard-response","607","527009","0.0-3.0-0.302","","fixation","","",""
"892","Set1/112a.jpg","79","image-keyboard-response","608","527905","0.0-3.0-1.302","","","Update","o","true"
"null","<div style=""font-size:60px;"">+</div>","null","html-keyboard-response","609","528415","0.0-3.0-0.303","","fixation","","",""
"758","Set1/109a.jpg","79","image-keyboard-response","610","529180","0.0-3.0-1.303","","","Update","o","true"
"null","<div style=""font-size:60px;"">+</div>","null","html-keyboard-response","611","529697","0.0-3.0-0.304","","fixation","","",""
"758","Set1/021a.jpg","79","image-keyboard-response","612","530462","0.0-3.0-1.304","","","Set_1_Only","o","true"
"null","<div style=""font-size:60px;"">+</div>","null","html-keyboard-response","613","530979","0.0-3.0-0.305","","fixation","","",""
"685","Set1/142a.jpg","79","image-keyboard-response","614","531669","0.0-3.0-1.305","","","Update","o","true"
"null","<div style=""font-size:60px;"">+</div>","null","html-keyboard-response","615","532182","0.0-3.0-0.306","","fixation","","",""
"1604","Set1/113a.jpg","78","image-keyboard-response","616","533793","0.0-3.0-1.306","","","Update","n","true"
"null","<div style=""font-size:60px;"">+</div>","null","html-keyboard-response","617","534292","0.0-3.0-0.307","","fixation","","",""
"977","Set1/016a.jpg","79","image-keyboard-response","618","535273","0.0-3.0-1.307","","","Set_1_Only","o","true"
"null","<div style=""font-size:60px;"">+</div>","null","html-keyboard-response","619","535778","0.0-3.0-0.308","","fixation","","",""
"735","Set1/061a.jpg","79","image-keyboard-response","620","536520","0.0-3.0-1.308","","","Repeat","o","true"
"null","<div style=""font-size:60px;"">+</div>","null","html-keyboard-response","621","537042","0.0-3.0-0.309","","fixation","","",""
"797","Set1/009a.jpg","79","image-keyboard-response","622","537842","0.0-3.0-1.309","","","Set_1_Only","o","true"
"null","<div style=""font-size:60px;"">+</div>","null","html-keyboard-response","623","538369","0.0-3.0-0.310","","fixation","","",""
"727","Set1/141a.jpg","79","image-keyboard-response","624","539105","0.0-3.0-1.310","","","Update","o","true"
"null","<div style=""font-size:60px;"">+</div>","null","html-keyboard-response","625","539629","0.0-3.0-0.311","","fixation","","",""
"751","Set1/011a.jpg","79","image-keyboard-response","626","540383","0.0-3.0-1.311","","","Set_1_Only","o","true"
"null","<div style=""font-size:60px;"">+</div>","null","html-keyboard-response","627","540890","0.0-3.0-0.312","","fixation","","",""
"1615","Set1/113a.jpg","78","image-keyboard-response","628","542508","0.0-3.0-1.312","","","Update","o","false"
"null","<div style=""font-size:60px;"">+</div>","null","html-keyboard-response","629","543031","0.0-3.0-0.313","","fixation","","",""
"930","Set1/058a.jpg","79","image-keyboard-response","630","543968","0.0-3.0-1.313","","","Repeat","o","true"
"null","<div style=""font-size:60px;"">+</div>","null","html-keyboard-response","631","544483","0.0-3.0-0.314","","fixation","","",""
"976","Set1/083a.jpg","79","image-keyboard-response","632","545468","0.0-3.0-1.314","","","Repeat","o","true"
"null","<div style=""font-size:60px;"">+</div>","null","html-keyboard-response","633","545996","0.0-3.0-0.315","","fixation","","",""
"855","Set1/029a.jpg","79","image-keyboard-response","634","546858","0.0-3.0-1.315","","","Set_1_Only","o","true"
"null","<div style=""font-size:60px;"">+</div>","null","html-keyboard-response","635","547375","0.0-3.0-0.316","","fixation","","",""
"834","Set1/034a.jpg","79","image-keyboard-response","636","548212","0.0-3.0-1.316","","","Repeat","o","true"
"null","<div style=""font-size:60px;"">+</div>","null","html-keyboard-response","637","548718","0.0-3.0-0.317","","fixation","","",""
"630","Set1/070a.jpg","79","image-keyboard-response","638","549357","0.0-3.0-1.317","","","Repeat","o","true"
"null","<div style=""font-size:60px;"">+</div>","null","html-keyboard-response","639","549891","0.0-3.0-0.318","","fixation","","",""
"676","Set1/098a.jpg","79","image-keyboard-response","640","550574","0.0-3.0-1.318","","","Update","o","true"
"null","<div style=""font-size:60px;"">+</div>","null","html-keyboard-response","641","551081","0.0-3.0-0.319","","fixation","","",""
"636","Set1/007a.jpg","79","image-keyboard-response","642","551725","0.0-3.0-1.319","","","Set_1_Only","o","true"
