"rt","stimulus","key_press","trial_type","trial_index","time_elapsed","internal_node_id","responses","test_part","stim_type","correct_response","correct"
"2539","Press any key to begin.","65","html-keyboard-response","0","2543","0.0-0.0","","","","",""
"8058","","","survey-text","1","10603","0.0-1.0","{""Q0"":""Set1201200\"""",""Q1"":""""}","","","",""
"11445","<p>In this experiment you will see a series of everyday objects presented one at a time at the center of the screen. Each image will be presented twice. </p><p>The first time you see the image, press the N key to indicate that it is a NEW image. The second time you see the image, press the O key to indicate that it is an OLD image.</p><div style='width: 700px;'></div><p>Press any key to begin.</p>","66","html-keyboard-response","2","22051","0.0-2.0","","","","",""
"null","<div style=""font-size:60px;"">+</div>","null","html-keyboard-response","3","24554","0.0-3.0-0.0","","fixation","","",""
"1812","Set1/063a.jpg","78","image-keyboard-response","4","26369","0.0-3.0-1.0","","","Repeat","n","true"
"null","<div style=""font-size:60px;"">+</div>","null","html-keyboard-response","5","26870","0.0-3.0-0.1","","fixation","","",""
"null","Set1/064a.jpg","null","image-keyboard-response","6","36872","0.0-3.0-1.1","","","Repeat","n","false"
"null","<div style=""font-size:60px;"">+</div>","null","html-keyboard-response","7","37374","0.0-3.0-0.2","","fixation","","",""
"null","Set1/047a.jpg","null","image-keyboard-response","8","47376","0.0-3.0-1.2","","","Repeat","n","false"
"null","<div style=""font-size:60px;"">+</div>","null","html-keyboard-response","9","47878","0.0-3.0-0.3","","fixation","","",""
"null","Set1/025a.jpg","null","image-keyboard-response","10","57881","0.0-3.0-1.3","","","Set_1_Only","n","false"
"null","<div style=""font-size:60px;"">+</div>","null","html-keyboard-response","11","58383","0.0-3.0-0.4","","fixation","","",""
"null","Set1/146a.jpg","null","image-keyboard-response","12","68385","0.0-3.0-1.4","","","Update","n","false"
"null","<div style=""font-size:60px;"">+</div>","null","html-keyboard-response","13","68886","0.0-3.0-0.5","","fixation","","",""
"null","Set1/020a.jpg","null","image-keyboard-response","14","78888","0.0-3.0-1.5","","","Set_1_Only","n","false"
"null","<div style=""font-size:60px;"">+</div>","null","html-keyboard-response","15","79390","0.0-3.0-0.6","","fixation","","",""
"null","Set1/120a.jpg","null","image-keyboard-response","16","89393","0.0-3.0-1.6","","","Update","n","false"
"null","<div style=""font-size:60px;"">+</div>","null","html-keyboard-response","17","89894","0.0-3.0-0.7","","fixation","","",""
"null","Set1/148a.jpg","null","image-keyboard-response","18","99897","0.0-3.0-1.7","","","Update","n","false"
"null","<div style=""font-size:60px;"">+</div>","null","html-keyboard-response","19","100398","0.0-3.0-0.8","","fixation","","",""
"null","Set1/028a.jpg","null","image-keyboard-response","20","110400","0.0-3.0-1.8","","","Set_1_Only","n","false"
"null","<div style=""font-size:60px;"">+</div>","null","html-keyboard-response","21","110902","0.0-3.0-0.9","","fixation","","",""
"null","Set1/071a.jpg","null","image-keyboard-response","22","120904","0.0-3.0-1.9","","","Repeat","n","false"
"null","<div style=""font-size:60px;"">+</div>","null","html-keyboard-response","23","121406","0.0-3.0-0.10","","fixation","","",""
"null","Set1/030a.jpg","null","image-keyboard-response","24","131409","0.0-3.0-1.10","","","Set_1_Only","n","false"
"null","<div style=""font-size:60px;"">+</div>","null","html-keyboard-response","25","131912","0.0-3.0-0.11","","fixation","","",""
"null","Set1/037a.jpg","null","image-keyboard-response","26","141916","0.0-3.0-1.11","","","Repeat","n","false"
"null","<div style=""font-size:60px;"">+</div>","null","html-keyboard-response","27","142417","0.0-3.0-0.12","","fixation","","",""
"2783","Set1/120a.jpg","79","image-keyboard-response","28","145201","0.0-3.0-1.12","","","Update","o","true"
"null","<div style=""font-size:60px;"">+</div>","null","html-keyboard-response","29","145703","0.0-3.0-0.13","","fixation","","",""
"2751","Set1/005a.jpg","79","image-keyboard-response","30","148455","0.0-3.0-1.13","","","Set_1_Only","n","false"
"null","<div style=""font-size:60px;"">+</div>","null","html-keyboard-response","31","148956","0.0-3.0-0.14","","fixation","","",""
"1862","Set1/079a.jpg","78","image-keyboard-response","32","150819","0.0-3.0-1.14","","","Repeat","n","true"
"null","<div style=""font-size:60px;"">+</div>","null","html-keyboard-response","33","151320","0.0-3.0-0.15","","fixation","","",""
"1594","Set1/136a.jpg","78","image-keyboard-response","34","152915","0.0-3.0-1.15","","","Update","n","true"
"null","<div style=""font-size:60px;"">+</div>","null","html-keyboard-response","35","153417","0.0-3.0-0.16","","fixation","","",""
"784","Set1/133a.jpg","78","image-keyboard-response","36","154202","0.0-3.0-1.16","","","Update","n","true"
"null","<div style=""font-size:60px;"">+</div>","null","html-keyboard-response","37","154704","0.0-3.0-0.17","","fixation","","",""
"852","Set1/128a.jpg","78","image-keyboard-response","38","155557","0.0-3.0-1.17","","","Update","n","true"
"null","<div style=""font-size:60px;"">+</div>","null","html-keyboard-response","39","156059","0.0-3.0-0.18","","fixation","","",""
"809","Set1/054a.jpg","78","image-keyboard-response","40","156869","0.0-3.0-1.18","","","Repeat","n","true"
"null","<div style=""font-size:60px;"">+</div>","null","html-keyboard-response","41","157371","0.0-3.0-0.19","","fixation","","",""
"705","Set1/108a.jpg","78","image-keyboard-response","42","158078","0.0-3.0-1.19","","","Update","n","true"
"null","<div style=""font-size:60px;"">+</div>","null","html-keyboard-response","43","158579","0.0-3.0-0.20","","fixation","","",""
"816","Set1/050a.jpg","78","image-keyboard-response","44","159396","0.0-3.0-1.20","","","Repeat","n","true"
"null","<div style=""font-size:60px;"">+</div>","null","html-keyboard-response","45","159898","0.0-3.0-0.21","","fixation","","",""
"1526","Set1/140a.jpg","78","image-keyboard-response","46","161425","0.0-3.0-1.21","","","Update","n","true"
"null","<div style=""font-size:60px;"">+</div>","null","html-keyboard-response","47","161928","0.0-3.0-0.22","","fixation","","",""
"724","Set1/051a.jpg","78","image-keyboard-response","48","162653","0.0-3.0-1.22","","","Repeat","n","true"
"null","<div style=""font-size:60px;"">+</div>","null","html-keyboard-response","49","163155","0.0-3.0-0.23","","fixation","","",""
"798","Set1/063a.jpg","79","image-keyboard-response","50","163955","0.0-3.0-1.23","","","Repeat","o","true"
"null","<div style=""font-size:60px;"">+</div>","null","html-keyboard-response","51","164456","0.0-3.0-0.24","","fixation","","",""
"992","Set1/006a.jpg","78","image-keyboard-response","52","165449","0.0-3.0-1.24","","","Set_1_Only","n","true"
"null","<div style=""font-size:60px;"">+</div>","null","html-keyboard-response","53","165951","0.0-3.0-0.25","","fixation","","",""
"1349","Set1/158a.jpg","78","image-keyboard-response","54","167302","0.0-3.0-1.25","","","Update","n","true"
"null","<div style=""font-size:60px;"">+</div>","null","html-keyboard-response","55","167803","0.0-3.0-0.26","","fixation","","",""
"1052","Set1/020a.jpg","79","image-keyboard-response","56","168857","0.0-3.0-1.26","","","Set_1_Only","o","true"
"null","<div style=""font-size:60px;"">+</div>","null","html-keyboard-response","57","169358","0.0-3.0-0.27","","fixation","","",""
"848","Set1/082a.jpg","78","image-keyboard-response","58","170207","0.0-3.0-1.27","","","Repeat","n","true"
"null","<div style=""font-size:60px;"">+</div>","null","html-keyboard-response","59","170709","0.0-3.0-0.28","","fixation","","",""
"1186","Set1/107a.jpg","78","image-keyboard-response","60","171896","0.0-3.0-1.28","","","Update","n","true"
"null","<div style=""font-size:60px;"">+</div>","null","html-keyboard-response","61","172398","0.0-3.0-0.29","","fixation","","",""
"1165","Set1/121a.jpg","78","image-keyboard-response","62","173564","0.0-3.0-1.29","","","Update","n","true"
"null","<div style=""font-size:60px;"">+</div>","null","html-keyboard-response","63","174066","0.0-3.0-0.30","","fixation","","",""
"1461","Set1/085a.jpg","78","image-keyboard-response","64","175528","0.0-3.0-1.30","","","Repeat","n","true"
"null","<div style=""font-size:60px;"">+</div>","null","html-keyboard-response","65","176030","0.0-3.0-0.31","","fixation","","",""
"936","Set1/136a.jpg","78","image-keyboard-response","66","176967","0.0-3.0-1.31","","","Update","o","false"
"null","<div style=""font-size:60px;"">+</div>","null","html-keyboard-response","67","177468","0.0-3.0-0.32","","fixation","","",""
"946","Set1/049a.jpg","78","image-keyboard-response","68","178415","0.0-3.0-1.32","","","Repeat","n","true"
"null","<div style=""font-size:60px;"">+</div>","null","html-keyboard-response","69","178917","0.0-3.0-0.33","","fixation","","",""
"1074","Set1/133a.jpg","79","image-keyboard-response","70","179992","0.0-3.0-1.33","","","Update","o","true"
"null","<div style=""font-size:60px;"">+</div>","null","html-keyboard-response","71","180494","0.0-3.0-0.34","","fixation","","",""
"1616","Set1/093a.jpg","78","image-keyboard-response","72","182111","0.0-3.0-1.34","","","Repeat","n","true"
"null","<div style=""font-size:60px;"">+</div>","null","html-keyboard-response","73","182613","0.0-3.0-0.35","","fixation","","",""
"961","Set1/064a.jpg","79","image-keyboard-response","74","183575","0.0-3.0-1.35","","","Repeat","o","true"
"null","<div style=""font-size:60px;"">+</div>","null","html-keyboard-response","75","184077","0.0-3.0-0.36","","fixation","","",""
"1262","Set1/005a.jpg","78","image-keyboard-response","76","185341","0.0-3.0-1.36","","","Set_1_Only","o","false"
"null","<div style=""font-size:60px;"">+</div>","null","html-keyboard-response","77","185843","0.0-3.0-0.37","","fixation","","",""
"1066","Set1/128a.jpg","79","image-keyboard-response","78","186910","0.0-3.0-1.37","","","Update","o","true"
"null","<div style=""font-size:60px;"">+</div>","null","html-keyboard-response","79","187412","0.0-3.0-0.38","","fixation","","",""
"827","Set1/044a.jpg","78","image-keyboard-response","80","188240","0.0-3.0-1.38","","","Repeat","n","true"
"null","<div style=""font-size:60px;"">+</div>","null","html-keyboard-response","81","188741","0.0-3.0-0.39","","fixation","","",""
"1134","Set1/037a.jpg","79","image-keyboard-response","82","189876","0.0-3.0-1.39","","","Repeat","o","true"
"null","<div style=""font-size:60px;"">+</div>","null","html-keyboard-response","83","190378","0.0-3.0-0.40","","fixation","","",""
"1084","Set1/088a.jpg","78","image-keyboard-response","84","191464","0.0-3.0-1.40","","","Repeat","n","true"
"null","<div style=""font-size:60px;"">+</div>","null","html-keyboard-response","85","191966","0.0-3.0-0.41","","fixation","","",""
"1721","Set1/106a.jpg","79","image-keyboard-response","86","193688","0.0-3.0-1.41","","","Update","n","false"
"null","<div style=""font-size:60px;"">+</div>","null","html-keyboard-response","87","194189","0.0-3.0-0.42","","fixation","","",""
"1555","Set1/031a.jpg","78","image-keyboard-response","88","195746","0.0-3.0-1.42","","","Set_1_Only","n","true"
"null","<div style=""font-size:60px;"">+</div>","null","html-keyboard-response","89","196248","0.0-3.0-0.43","","fixation","","",""
"886","Set1/160a.jpg","78","image-keyboard-response","90","197136","0.0-3.0-1.43","","","Update","n","true"
"null","<div style=""font-size:60px;"">+</div>","null","html-keyboard-response","91","197638","0.0-3.0-0.44","","fixation","","",""
"726","Set1/025a.jpg","79","image-keyboard-response","92","198364","0.0-3.0-1.44","","","Set_1_Only","o","true"
"null","<div style=""font-size:60px;"">+</div>","null","html-keyboard-response","93","198866","0.0-3.0-0.45","","fixation","","",""
"938","Set1/088a.jpg","78","image-keyboard-response","94","199805","0.0-3.0-1.45","","","Repeat","o","false"
"null","<div style=""font-size:60px;"">+</div>","null","html-keyboard-response","95","200308","0.0-3.0-0.46","","fixation","","",""
"1079","Set1/093a.jpg","79","image-keyboard-response","96","201387","0.0-3.0-1.46","","","Repeat","o","true"
"null","<div style=""font-size:60px;"">+</div>","null","html-keyboard-response","97","201889","0.0-3.0-0.47","","fixation","","",""
"1118","Set1/054a.jpg","79","image-keyboard-response","98","203008","0.0-3.0-1.47","","","Repeat","o","true"
"null","<div style=""font-size:60px;"">+</div>","null","html-keyboard-response","99","203510","0.0-3.0-0.48","","fixation","","",""
"942","Set1/105a.jpg","78","image-keyboard-response","100","204453","0.0-3.0-1.48","","","Update","n","true"
"null","<div style=""font-size:60px;"">+</div>","null","html-keyboard-response","101","204955","0.0-3.0-0.49","","fixation","","",""
"770","Set1/045a.jpg","79","image-keyboard-response","102","205726","0.0-3.0-1.49","","","Repeat","n","false"
"null","<div style=""font-size:60px;"">+</div>","null","html-keyboard-response","103","206228","0.0-3.0-0.50","","fixation","","",""
"1530","Set1/006a.jpg","78","image-keyboard-response","104","207759","0.0-3.0-1.50","","","Set_1_Only","o","false"
"null","<div style=""font-size:60px;"">+</div>","null","html-keyboard-response","105","208261","0.0-3.0-0.51","","fixation","","",""
"928","Set1/140a.jpg","79","image-keyboard-response","106","209189","0.0-3.0-1.51","","","Update","o","true"
"null","<div style=""font-size:60px;"">+</div>","null","html-keyboard-response","107","209691","0.0-3.0-0.52","","fixation","","",""
"987","Set1/027a.jpg","78","image-keyboard-response","108","210679","0.0-3.0-1.52","","","Set_1_Only","n","true"
"null","<div style=""font-size:60px;"">+</div>","null","html-keyboard-response","109","211181","0.0-3.0-0.53","","fixation","","",""
"869","Set1/049a.jpg","79","image-keyboard-response","110","212051","0.0-3.0-1.53","","","Repeat","o","true"
"null","<div style=""font-size:60px;"">+</div>","null","html-keyboard-response","111","212552","0.0-3.0-0.54","","fixation","","",""
"1013","Set1/051a.jpg","79","image-keyboard-response","112","213566","0.0-3.0-1.54","","","Repeat","o","true"
"null","<div style=""font-size:60px;"">+</div>","null","html-keyboard-response","113","214068","0.0-3.0-0.55","","fixation","","",""
"898","Set1/028a.jpg","79","image-keyboard-response","114","214968","0.0-3.0-1.55","","","Set_1_Only","o","true"
"null","<div style=""font-size:60px;"">+</div>","null","html-keyboard-response","115","215470","0.0-3.0-0.56","","fixation","","",""
"866","Set1/047a.jpg","79","image-keyboard-response","116","216336","0.0-3.0-1.56","","","Repeat","o","true"
"null","<div style=""font-size:60px;"">+</div>","null","html-keyboard-response","117","216838","0.0-3.0-0.57","","fixation","","",""
"692","Set1/071a.jpg","79","image-keyboard-response","118","217531","0.0-3.0-1.57","","","Repeat","o","true"
"null","<div style=""font-size:60px;"">+</div>","null","html-keyboard-response","119","218033","0.0-3.0-0.58","","fixation","","",""
"876","Set1/108a.jpg","78","image-keyboard-response","120","218911","0.0-3.0-1.58","","","Update","o","false"
"null","<div style=""font-size:60px;"">+</div>","null","html-keyboard-response","121","219413","0.0-3.0-0.59","","fixation","","",""
"821","Set1/027a.jpg","79","image-keyboard-response","122","220234","0.0-3.0-1.59","","","Set_1_Only","o","true"
"null","<div style=""font-size:60px;"">+</div>","null","html-keyboard-response","123","220736","0.0-3.0-0.60","","fixation","","",""
"1116","Set1/044a.jpg","78","image-keyboard-response","124","221854","0.0-3.0-1.60","","","Repeat","o","false"
"null","<div style=""font-size:60px;"">+</div>","null","html-keyboard-response","125","222355","0.0-3.0-0.61","","fixation","","",""
"1211","Set1/045a.jpg","79","image-keyboard-response","126","223567","0.0-3.0-1.61","","","Repeat","o","true"
"null","<div style=""font-size:60px;"">+</div>","null","html-keyboard-response","127","224069","0.0-3.0-0.62","","fixation","","",""
"981","Set1/134a.jpg","78","image-keyboard-response","128","225053","0.0-3.0-1.62","","","Update","n","true"
"null","<div style=""font-size:60px;"">+</div>","null","html-keyboard-response","129","225553","0.0-3.0-0.63","","fixation","","",""
"1072","Set1/158a.jpg","79","image-keyboard-response","130","226626","0.0-3.0-1.63","","","Update","o","true"
"null","<div style=""font-size:60px;"">+</div>","null","html-keyboard-response","131","227128","0.0-3.0-0.64","","fixation","","",""
"1092","Set1/106a.jpg","79","image-keyboard-response","132","228220","0.0-3.0-1.64","","","Update","o","true"
"null","<div style=""font-size:60px;"">+</div>","null","html-keyboard-response","133","228722","0.0-3.0-0.65","","fixation","","",""
"868","Set1/119a.jpg","78","image-keyboard-response","134","229591","0.0-3.0-1.65","","","Update","n","true"
"null","<div style=""font-size:60px;"">+</div>","null","html-keyboard-response","135","230094","0.0-3.0-0.66","","fixation","","",""
"890","Set1/105a.jpg","79","image-keyboard-response","136","230986","0.0-3.0-1.66","","","Update","o","true"
"null","<div style=""font-size:60px;"">+</div>","null","html-keyboard-response","137","231488","0.0-3.0-0.67","","fixation","","",""
"936","Set1/119a.jpg","78","image-keyboard-response","138","232425","0.0-3.0-1.67","","","Update","o","false"
"null","<div style=""font-size:60px;"">+</div>","null","html-keyboard-response","139","232927","0.0-3.0-0.68","","fixation","","",""
"919","Set1/148a.jpg","79","image-keyboard-response","140","233847","0.0-3.0-1.68","","","Update","o","true"
"null","<div style=""font-size:60px;"">+</div>","null","html-keyboard-response","141","234349","0.0-3.0-0.69","","fixation","","",""
"1209","Set1/031a.jpg","79","image-keyboard-response","142","235559","0.0-3.0-1.69","","","Set_1_Only","o","true"
"null","<div style=""font-size:60px;"">+</div>","null","html-keyboard-response","143","236061","0.0-3.0-0.70","","fixation","","",""
"1042","Set1/050a.jpg","79","image-keyboard-response","144","237104","0.0-3.0-1.70","","","Repeat","o","true"
"null","<div style=""font-size:60px;"">+</div>","null","html-keyboard-response","145","237606","0.0-3.0-0.71","","fixation","","",""
"994","Set1/082a.jpg","79","image-keyboard-response","146","238602","0.0-3.0-1.71","","","Repeat","o","true"
"null","<div style=""font-size:60px;"">+</div>","null","html-keyboard-response","147","239104","0.0-3.0-0.72","","fixation","","",""
"1393","Set1/085a.jpg","78","image-keyboard-response","148","240497","0.0-3.0-1.72","","","Repeat","o","false"
"null","<div style=""font-size:60px;"">+</div>","null","html-keyboard-response","149","240999","0.0-3.0-0.73","","fixation","","",""
"705","Set1/030a.jpg","79","image-keyboard-response","150","241705","0.0-3.0-1.73","","","Set_1_Only","o","true"
"null","<div style=""font-size:60px;"">+</div>","null","html-keyboard-response","151","242207","0.0-3.0-0.74","","fixation","","",""
"678","Set1/160a.jpg","79","image-keyboard-response","152","242887","0.0-3.0-1.74","","","Update","o","true"
"null","<div style=""font-size:60px;"">+</div>","null","html-keyboard-response","153","243388","0.0-3.0-0.75","","fixation","","",""
"1492","Set1/134a.jpg","78","image-keyboard-response","154","244880","0.0-3.0-1.75","","","Update","o","false"
"null","<div style=""font-size:60px;"">+</div>","null","html-keyboard-response","155","245382","0.0-3.0-0.76","","fixation","","",""
"491","Set1/146a.jpg","79","image-keyboard-response","156","245874","0.0-3.0-1.76","","","Update","o","true"
"null","<div style=""font-size:60px;"">+</div>","null","html-keyboard-response","157","246376","0.0-3.0-0.77","","fixation","","",""
"783","Set1/107a.jpg","79","image-keyboard-response","158","247160","0.0-3.0-1.77","","","Update","o","true"
"null","<div style=""font-size:60px;"">+</div>","null","html-keyboard-response","159","247663","0.0-3.0-0.78","","fixation","","",""
"839","Set1/079a.jpg","79","image-keyboard-response","160","248503","0.0-3.0-1.78","","","Repeat","o","true"
"null","<div style=""font-size:60px;"">+</div>","null","html-keyboard-response","161","249004","0.0-3.0-0.79","","fixation","","",""
"902","Set1/121a.jpg","79","image-keyboard-response","162","249907","0.0-3.0-1.79","","","Update","o","true"
"null","<div style=""font-size:60px;"">+</div>","null","html-keyboard-response","163","250409","0.0-3.0-0.80","","fixation","","",""
"1478","Set1/095a.jpg","78","image-keyboard-response","164","251889","0.0-3.0-1.80","","","Repeat","n","true"
"null","<div style=""font-size:60px;"">+</div>","null","html-keyboard-response","165","252391","0.0-3.0-0.81","","fixation","","",""
"840","Set1/041a.jpg","78","image-keyboard-response","166","253231","0.0-3.0-1.81","","","Repeat","n","true"
"null","<div style=""font-size:60px;"">+</div>","null","html-keyboard-response","167","253733","0.0-3.0-0.82","","fixation","","",""
"631","Set1/100a.jpg","78","image-keyboard-response","168","254365","0.0-3.0-1.82","","","Update","n","true"
"null","<div style=""font-size:60px;"">+</div>","null","html-keyboard-response","169","254867","0.0-3.0-0.83","","fixation","","",""
"720","Set1/036a.jpg","78","image-keyboard-response","170","255588","0.0-3.0-1.83","","","Repeat","n","true"
"null","<div style=""font-size:60px;"">+</div>","null","html-keyboard-response","171","256090","0.0-3.0-0.84","","fixation","","",""
"679","Set1/115a.jpg","78","image-keyboard-response","172","256770","0.0-3.0-1.84","","","Update","n","true"
"null","<div style=""font-size:60px;"">+</div>","null","html-keyboard-response","173","257272","0.0-3.0-0.85","","fixation","","",""
"922","Set1/123a.jpg","78","image-keyboard-response","174","258195","0.0-3.0-1.85","","","Update","n","true"
"null","<div style=""font-size:60px;"">+</div>","null","html-keyboard-response","175","258697","0.0-3.0-0.86","","fixation","","",""
"673","Set1/015a.jpg","78","image-keyboard-response","176","259372","0.0-3.0-1.86","","","Set_1_Only","n","true"
"null","<div style=""font-size:60px;"">+</div>","null","html-keyboard-response","177","259874","0.0-3.0-0.87","","fixation","","",""
"677","Set1/096a.jpg","78","image-keyboard-response","178","260552","0.0-3.0-1.87","","","Repeat","n","true"
"null","<div style=""font-size:60px;"">+</div>","null","html-keyboard-response","179","261053","0.0-3.0-0.88","","fixation","","",""
"656","Set1/110a.jpg","78","image-keyboard-response","180","261711","0.0-3.0-1.88","","","Update","n","true"
"null","<div style=""font-size:60px;"">+</div>","null","html-keyboard-response","181","262212","0.0-3.0-0.89","","fixation","","",""
"721","Set1/151a.jpg","78","image-keyboard-response","182","262935","0.0-3.0-1.89","","","Update","n","true"
"null","<div style=""font-size:60px;"">+</div>","null","html-keyboard-response","183","263436","0.0-3.0-0.90","","fixation","","",""
"652","Set1/035a.jpg","78","image-keyboard-response","184","264090","0.0-3.0-1.90","","","Repeat","n","true"
"null","<div style=""font-size:60px;"">+</div>","null","html-keyboard-response","185","264591","0.0-3.0-0.91","","fixation","","",""
"815","Set1/026a.jpg","78","image-keyboard-response","186","265407","0.0-3.0-1.91","","","Set_1_Only","n","true"
"null","<div style=""font-size:60px;"">+</div>","null","html-keyboard-response","187","265909","0.0-3.0-0.92","","fixation","","",""
"613","Set1/067a.jpg","78","image-keyboard-response","188","266523","0.0-3.0-1.92","","","Repeat","n","true"
"null","<div style=""font-size:60px;"">+</div>","null","html-keyboard-response","189","267025","0.0-3.0-0.93","","fixation","","",""
"910","Set1/076a.jpg","78","image-keyboard-response","190","267936","0.0-3.0-1.93","","","Repeat","n","true"
"null","<div style=""font-size:60px;"">+</div>","null","html-keyboard-response","191","268438","0.0-3.0-0.94","","fixation","","",""
"682","Set1/125a.jpg","78","image-keyboard-response","192","269121","0.0-3.0-1.94","","","Update","n","true"
"null","<div style=""font-size:60px;"">+</div>","null","html-keyboard-response","193","269623","0.0-3.0-0.95","","fixation","","",""
"842","Set1/123a.jpg","79","image-keyboard-response","194","270467","0.0-3.0-1.95","","","Update","o","true"
"null","<div style=""font-size:60px;"">+</div>","null","html-keyboard-response","195","270969","0.0-3.0-0.96","","fixation","","",""
"857","Set1/076a.jpg","78","image-keyboard-response","196","271826","0.0-3.0-1.96","","","Repeat","o","false"
"null","<div style=""font-size:60px;"">+</div>","null","html-keyboard-response","197","272328","0.0-3.0-0.97","","fixation","","",""
"1240","Set1/151a.jpg","78","image-keyboard-response","198","273568","0.0-3.0-1.97","","","Update","o","false"
"null","<div style=""font-size:60px;"">+</div>","null","html-keyboard-response","199","274070","0.0-3.0-0.98","","fixation","","",""
"700","Set1/115a.jpg","79","image-keyboard-response","200","274771","0.0-3.0-1.98","","","Update","o","true"
"null","<div style=""font-size:60px;"">+</div>","null","html-keyboard-response","201","275273","0.0-3.0-0.99","","fixation","","",""
"835","Set1/081a.jpg","78","image-keyboard-response","202","276109","0.0-3.0-1.99","","","Repeat","n","true"
"null","<div style=""font-size:60px;"">+</div>","null","html-keyboard-response","203","276611","0.0-3.0-0.100","","fixation","","",""
"1012","Set1/015a.jpg","79","image-keyboard-response","204","277625","0.0-3.0-1.100","","","Set_1_Only","o","true"
"null","<div style=""font-size:60px;"">+</div>","null","html-keyboard-response","205","278127","0.0-3.0-0.101","","fixation","","",""
"909","Set1/035a.jpg","78","image-keyboard-response","206","279036","0.0-3.0-1.101","","","Repeat","o","false"
"null","<div style=""font-size:60px;"">+</div>","null","html-keyboard-response","207","279538","0.0-3.0-0.102","","fixation","","",""
"811","Set1/014a.jpg","78","image-keyboard-response","208","280350","0.0-3.0-1.102","","","Set_1_Only","n","true"
"null","<div style=""font-size:60px;"">+</div>","null","html-keyboard-response","209","280852","0.0-3.0-0.103","","fixation","","",""
"818","Set1/152a.jpg","78","image-keyboard-response","210","281672","0.0-3.0-1.103","","","Update","n","true"
"null","<div style=""font-size:60px;"">+</div>","null","html-keyboard-response","211","282173","0.0-3.0-0.104","","fixation","","",""
"676","Set1/114a.jpg","78","image-keyboard-response","212","282850","0.0-3.0-1.104","","","Update","n","true"
"null","<div style=""font-size:60px;"">+</div>","null","html-keyboard-response","213","283352","0.0-3.0-0.105","","fixation","","",""
"917","Set1/019a.jpg","78","image-keyboard-response","214","284271","0.0-3.0-1.105","","","Set_1_Only","n","true"
"null","<div style=""font-size:60px;"">+</div>","null","html-keyboard-response","215","284773","0.0-3.0-0.106","","fixation","","",""
"760","Set1/013a.jpg","78","image-keyboard-response","216","285534","0.0-3.0-1.106","","","Set_1_Only","n","true"
"null","<div style=""font-size:60px;"">+</div>","null","html-keyboard-response","217","286036","0.0-3.0-0.107","","fixation","","",""
"810","Set1/053a.jpg","78","image-keyboard-response","218","286846","0.0-3.0-1.107","","","Repeat","n","true"
"null","<div style=""font-size:60px;"">+</div>","null","html-keyboard-response","219","287348","0.0-3.0-0.108","","fixation","","",""
"1081","Set1/026a.jpg","78","image-keyboard-response","220","288429","0.0-3.0-1.108","","","Set_1_Only","o","false"
"null","<div style=""font-size:60px;"">+</div>","null","html-keyboard-response","221","288931","0.0-3.0-0.109","","fixation","","",""
"905","Set1/138a.jpg","78","image-keyboard-response","222","289837","0.0-3.0-1.109","","","Update","n","true"
"null","<div style=""font-size:60px;"">+</div>","null","html-keyboard-response","223","290339","0.0-3.0-0.110","","fixation","","",""
"915","Set1/010a.jpg","78","image-keyboard-response","224","291255","0.0-3.0-1.110","","","Set_1_Only","n","true"
"null","<div style=""font-size:60px;"">+</div>","null","html-keyboard-response","225","291757","0.0-3.0-0.111","","fixation","","",""
"801","Set1/008a.jpg","78","image-keyboard-response","226","292558","0.0-3.0-1.111","","","Set_1_Only","n","true"
"null","<div style=""font-size:60px;"">+</div>","null","html-keyboard-response","227","293060","0.0-3.0-0.112","","fixation","","",""
"865","Set1/036a.jpg","79","image-keyboard-response","228","293925","0.0-3.0-1.112","","","Repeat","o","true"
"null","<div style=""font-size:60px;"">+</div>","null","html-keyboard-response","229","294427","0.0-3.0-0.113","","fixation","","",""
"913","Set1/081a.jpg","79","image-keyboard-response","230","295342","0.0-3.0-1.113","","","Repeat","o","true"
"null","<div style=""font-size:60px;"">+</div>","null","html-keyboard-response","231","295844","0.0-3.0-0.114","","fixation","","",""
"668","Set1/114a.jpg","79","image-keyboard-response","232","296512","0.0-3.0-1.114","","","Update","o","true"
"null","<div style=""font-size:60px;"">+</div>","null","html-keyboard-response","233","297014","0.0-3.0-0.115","","fixation","","",""
"831","Set1/156a.jpg","78","image-keyboard-response","234","297847","0.0-3.0-1.115","","","Update","n","true"
"null","<div style=""font-size:60px;"">+</div>","null","html-keyboard-response","235","298347","0.0-3.0-0.116","","fixation","","",""
"892","Set1/056a.jpg","79","image-keyboard-response","236","299241","0.0-3.0-1.116","","","Repeat","n","false"
"null","<div style=""font-size:60px;"">+</div>","null","html-keyboard-response","237","299742","0.0-3.0-0.117","","fixation","","",""
"1441","Set1/150a.jpg","78","image-keyboard-response","238","301185","0.0-3.0-1.117","","","Update","n","true"
"null","<div style=""font-size:60px;"">+</div>","null","html-keyboard-response","239","301687","0.0-3.0-0.118","","fixation","","",""
"827","Set1/152a.jpg","79","image-keyboard-response","240","302515","0.0-3.0-1.118","","","Update","o","true"
"null","<div style=""font-size:60px;"">+</div>","null","html-keyboard-response","241","303017","0.0-3.0-0.119","","fixation","","",""
"1850","Set1/157a.jpg","78","image-keyboard-response","242","304867","0.0-3.0-1.119","","","Update","n","true"
"null","<div style=""font-size:60px;"">+</div>","null","html-keyboard-response","243","305369","0.0-3.0-0.120","","fixation","","",""
"916","Set1/059a.jpg","78","image-keyboard-response","244","306286","0.0-3.0-1.120","","","Repeat","n","true"
"null","<div style=""font-size:60px;"">+</div>","null","html-keyboard-response","245","306788","0.0-3.0-0.121","","fixation","","",""
"840","Set1/055a.jpg","78","image-keyboard-response","246","307629","0.0-3.0-1.121","","","Repeat","n","true"
"null","<div style=""font-size:60px;"">+</div>","null","html-keyboard-response","247","308130","0.0-3.0-0.122","","fixation","","",""
"891","Set1/019a.jpg","79","image-keyboard-response","248","309023","0.0-3.0-1.122","","","Set_1_Only","o","true"
"null","<div style=""font-size:60px;"">+</div>","null","html-keyboard-response","249","309525","0.0-3.0-0.123","","fixation","","",""
"866","Set1/075a.jpg","78","image-keyboard-response","250","310391","0.0-3.0-1.123","","","Repeat","n","true"
"null","<div style=""font-size:60px;"">+</div>","null","html-keyboard-response","251","310893","0.0-3.0-0.124","","fixation","","",""
"859","Set1/048a.jpg","78","image-keyboard-response","252","311753","0.0-3.0-1.124","","","Repeat","n","true"
"null","<div style=""font-size:60px;"">+</div>","null","html-keyboard-response","253","312255","0.0-3.0-0.125","","fixation","","",""
"1019","Set1/052a.jpg","78","image-keyboard-response","254","313275","0.0-3.0-1.125","","","Repeat","n","true"
"null","<div style=""font-size:60px;"">+</div>","null","html-keyboard-response","255","313777","0.0-3.0-0.126","","fixation","","",""
"802","Set1/154a.jpg","78","image-keyboard-response","256","314580","0.0-3.0-1.126","","","Update","n","true"
"null","<div style=""font-size:60px;"">+</div>","null","html-keyboard-response","257","315082","0.0-3.0-0.127","","fixation","","",""
"736","Set1/041a.jpg","79","image-keyboard-response","258","315819","0.0-3.0-1.127","","","Repeat","o","true"
"null","<div style=""font-size:60px;"">+</div>","null","html-keyboard-response","259","316321","0.0-3.0-0.128","","fixation","","",""
"687","Set1/010a.jpg","79","image-keyboard-response","260","317009","0.0-3.0-1.128","","","Set_1_Only","o","true"
"null","<div style=""font-size:60px;"">+</div>","null","html-keyboard-response","261","317511","0.0-3.0-0.129","","fixation","","",""
"751","Set1/008a.jpg","79","image-keyboard-response","262","318262","0.0-3.0-1.129","","","Set_1_Only","o","true"
"null","<div style=""font-size:60px;"">+</div>","null","html-keyboard-response","263","318763","0.0-3.0-0.130","","fixation","","",""
"694","Set1/154a.jpg","78","image-keyboard-response","264","319459","0.0-3.0-1.130","","","Update","o","false"
"null","<div style=""font-size:60px;"">+</div>","null","html-keyboard-response","265","319960","0.0-3.0-0.131","","fixation","","",""
"905","Set1/048a.jpg","79","image-keyboard-response","266","320866","0.0-3.0-1.131","","","Repeat","o","true"
"null","<div style=""font-size:60px;"">+</div>","null","html-keyboard-response","267","321367","0.0-3.0-0.132","","fixation","","",""
"824","Set1/053a.jpg","79","image-keyboard-response","268","322192","0.0-3.0-1.132","","","Repeat","o","true"
"null","<div style=""font-size:60px;"">+</div>","null","html-keyboard-response","269","322694","0.0-3.0-0.133","","fixation","","",""
"779","Set1/138a.jpg","79","image-keyboard-response","270","323474","0.0-3.0-1.133","","","Update","o","true"
"null","<div style=""font-size:60px;"">+</div>","null","html-keyboard-response","271","323975","0.0-3.0-0.134","","fixation","","",""
"938","Set1/014a.jpg","79","image-keyboard-response","272","324915","0.0-3.0-1.134","","","Set_1_Only","o","true"
"null","<div style=""font-size:60px;"">+</div>","null","html-keyboard-response","273","325416","0.0-3.0-0.135","","fixation","","",""
"1038","Set1/075a.jpg","79","image-keyboard-response","274","326454","0.0-3.0-1.135","","","Repeat","o","true"
"null","<div style=""font-size:60px;"">+</div>","null","html-keyboard-response","275","326957","0.0-3.0-0.136","","fixation","","",""
"855","Set1/111a.jpg","78","image-keyboard-response","276","327812","0.0-3.0-1.136","","","Update","n","true"
"null","<div style=""font-size:60px;"">+</div>","null","html-keyboard-response","277","328313","0.0-3.0-0.137","","fixation","","",""
"922","Set1/056a.jpg","79","image-keyboard-response","278","329236","0.0-3.0-1.137","","","Repeat","o","true"
"null","<div style=""font-size:60px;"">+</div>","null","html-keyboard-response","279","329738","0.0-3.0-0.138","","fixation","","",""
"1267","Set1/003a.jpg","78","image-keyboard-response","280","331007","0.0-3.0-1.138","","","Set_1_Only","n","true"
"null","<div style=""font-size:60px;"">+</div>","null","html-keyboard-response","281","331509","0.0-3.0-0.139","","fixation","","",""
"901","Set1/125a.jpg","79","image-keyboard-response","282","332410","0.0-3.0-1.139","","","Update","o","true"
"null","<div style=""font-size:60px;"">+</div>","null","html-keyboard-response","283","332912","0.0-3.0-0.140","","fixation","","",""
"1161","Set1/072a.jpg","78","image-keyboard-response","284","334074","0.0-3.0-1.140","","","Repeat","n","true"
"null","<div style=""font-size:60px;"">+</div>","null","html-keyboard-response","285","334576","0.0-3.0-0.141","","fixation","","",""
"1058","Set1/084a.jpg","78","image-keyboard-response","286","335635","0.0-3.0-1.141","","","Repeat","n","true"
"null","<div style=""font-size:60px;"">+</div>","null","html-keyboard-response","287","336137","0.0-3.0-0.142","","fixation","","",""
"730","Set1/156a.jpg","79","image-keyboard-response","288","336868","0.0-3.0-1.142","","","Update","o","true"
"null","<div style=""font-size:60px;"">+</div>","null","html-keyboard-response","289","337370","0.0-3.0-0.143","","fixation","","",""
"791","Set1/003a.jpg","78","image-keyboard-response","290","338162","0.0-3.0-1.143","","","Set_1_Only","o","false"
"null","<div style=""font-size:60px;"">+</div>","null","html-keyboard-response","291","338664","0.0-3.0-0.144","","fixation","","",""
"848","Set1/059a.jpg","79","image-keyboard-response","292","339513","0.0-3.0-1.144","","","Repeat","o","true"
"null","<div style=""font-size:60px;"">+</div>","null","html-keyboard-response","293","340015","0.0-3.0-0.145","","fixation","","",""
"776","Set1/110a.jpg","79","image-keyboard-response","294","340792","0.0-3.0-1.145","","","Update","o","true"
"null","<div style=""font-size:60px;"">+</div>","null","html-keyboard-response","295","341294","0.0-3.0-0.146","","fixation","","",""
"745","Set1/084a.jpg","79","image-keyboard-response","296","342039","0.0-3.0-1.146","","","Repeat","o","true"
"null","<div style=""font-size:60px;"">+</div>","null","html-keyboard-response","297","342541","0.0-3.0-0.147","","fixation","","",""
"843","Set1/072a.jpg","79","image-keyboard-response","298","343385","0.0-3.0-1.147","","","Repeat","o","true"
"null","<div style=""font-size:60px;"">+</div>","null","html-keyboard-response","299","343887","0.0-3.0-0.148","","fixation","","",""
"1146","Set1/127a.jpg","78","image-keyboard-response","300","345034","0.0-3.0-1.148","","","Update","n","true"
"null","<div style=""font-size:60px;"">+</div>","null","html-keyboard-response","301","345536","0.0-3.0-0.149","","fixation","","",""
"1338","Set1/095a.jpg","79","image-keyboard-response","302","346875","0.0-3.0-1.149","","","Repeat","o","true"
"null","<div style=""font-size:60px;"">+</div>","null","html-keyboard-response","303","347377","0.0-3.0-0.150","","fixation","","",""
"704","Set1/013a.jpg","79","image-keyboard-response","304","348082","0.0-3.0-1.150","","","Set_1_Only","o","true"
"null","<div style=""font-size:60px;"">+</div>","null","html-keyboard-response","305","348584","0.0-3.0-0.151","","fixation","","",""
"883","Set1/067a.jpg","78","image-keyboard-response","306","349468","0.0-3.0-1.151","","","Repeat","o","false"
"null","<div style=""font-size:60px;"">+</div>","null","html-keyboard-response","307","349970","0.0-3.0-0.152","","fixation","","",""
"751","Set1/157a.jpg","79","image-keyboard-response","308","350721","0.0-3.0-1.152","","","Update","o","true"
"null","<div style=""font-size:60px;"">+</div>","null","html-keyboard-response","309","351223","0.0-3.0-0.153","","fixation","","",""
"1325","Set1/127a.jpg","79","image-keyboard-response","310","352550","0.0-3.0-1.153","","","Update","o","true"
"null","<div style=""font-size:60px;"">+</div>","null","html-keyboard-response","311","353051","0.0-3.0-0.154","","fixation","","",""
"710","Set1/052a.jpg","78","image-keyboard-response","312","353762","0.0-3.0-1.154","","","Repeat","o","false"
"null","<div style=""font-size:60px;"">+</div>","null","html-keyboard-response","313","354264","0.0-3.0-0.155","","fixation","","",""
"1506","Set1/055a.jpg","79","image-keyboard-response","314","355771","0.0-3.0-1.155","","","Repeat","o","true"
"null","<div style=""font-size:60px;"">+</div>","null","html-keyboard-response","315","356272","0.0-3.0-0.156","","fixation","","",""
"776","Set1/111a.jpg","79","image-keyboard-response","316","357050","0.0-3.0-1.156","","","Update","o","true"
"null","<div style=""font-size:60px;"">+</div>","null","html-keyboard-response","317","357552","0.0-3.0-0.157","","fixation","","",""
"716","Set1/150a.jpg","79","image-keyboard-response","318","358268","0.0-3.0-1.157","","","Update","o","true"
"null","<div style=""font-size:60px;"">+</div>","null","html-keyboard-response","319","358770","0.0-3.0-0.158","","fixation","","",""
"661","Set1/100a.jpg","79","image-keyboard-response","320","359432","0.0-3.0-1.158","","","Update","o","true"
"null","<div style=""font-size:60px;"">+</div>","null","html-keyboard-response","321","359933","0.0-3.0-0.159","","fixation","","",""
"806","Set1/096a.jpg","79","image-keyboard-response","322","360741","0.0-3.0-1.159","","","Repeat","o","true"
"null","<div style=""font-size:60px;"">+</div>","null","html-keyboard-response","323","361242","0.0-3.0-0.160","","fixation","","",""
"855","Set1/159a.jpg","78","image-keyboard-response","324","362099","0.0-3.0-1.160","","","Update","n","true"
"null","<div style=""font-size:60px;"">+</div>","null","html-keyboard-response","325","362600","0.0-3.0-0.161","","fixation","","",""
"687","Set1/074a.jpg","78","image-keyboard-response","326","363288","0.0-3.0-1.161","","","Repeat","n","true"
"null","<div style=""font-size:60px;"">+</div>","null","html-keyboard-response","327","363790","0.0-3.0-0.162","","fixation","","",""
"740","Set1/060a.jpg","78","image-keyboard-response","328","364531","0.0-3.0-1.162","","","Repeat","n","true"
"null","<div style=""font-size:60px;"">+</div>","null","html-keyboard-response","329","365033","0.0-3.0-0.163","","fixation","","",""
"753","Set1/062a.jpg","78","image-keyboard-response","330","365787","0.0-3.0-1.163","","","Repeat","n","true"
"null","<div style=""font-size:60px;"">+</div>","null","html-keyboard-response","331","366289","0.0-3.0-0.164","","fixation","","",""
"664","Set1/155a.jpg","78","image-keyboard-response","332","366954","0.0-3.0-1.164","","","Update","n","true"
"null","<div style=""font-size:60px;"">+</div>","null","html-keyboard-response","333","367455","0.0-3.0-0.165","","fixation","","",""
"836","Set1/117a.jpg","78","image-keyboard-response","334","368291","0.0-3.0-1.165","","","Update","n","true"
"null","<div style=""font-size:60px;"">+</div>","null","html-keyboard-response","335","368793","0.0-3.0-0.166","","fixation","","",""
"704","Set1/004a.jpg","78","image-keyboard-response","336","369499","0.0-3.0-1.166","","","Set_1_Only","n","true"
"null","<div style=""font-size:60px;"">+</div>","null","html-keyboard-response","337","370000","0.0-3.0-0.167","","fixation","","",""
"833","Set1/097a.jpg","78","image-keyboard-response","338","370834","0.0-3.0-1.167","","","Update","n","true"
"null","<div style=""font-size:60px;"">+</div>","null","html-keyboard-response","339","371336","0.0-3.0-0.168","","fixation","","",""
"651","Set1/130a.jpg","78","image-keyboard-response","340","371989","0.0-3.0-1.168","","","Update","n","true"
"null","<div style=""font-size:60px;"">+</div>","null","html-keyboard-response","341","372490","0.0-3.0-0.169","","fixation","","",""
"621","Set1/068a.jpg","78","image-keyboard-response","342","373113","0.0-3.0-1.169","","","Repeat","n","true"
"null","<div style=""font-size:60px;"">+</div>","null","html-keyboard-response","343","373615","0.0-3.0-0.170","","fixation","","",""
"673","Set1/137a.jpg","78","image-keyboard-response","344","374288","0.0-3.0-1.170","","","Update","n","true"
"null","<div style=""font-size:60px;"">+</div>","null","html-keyboard-response","345","374790","0.0-3.0-0.171","","fixation","","",""
"615","Set1/097a.jpg","78","image-keyboard-response","346","375406","0.0-3.0-1.171","","","Update","o","false"
"null","<div style=""font-size:60px;"">+</div>","null","html-keyboard-response","347","375908","0.0-3.0-0.172","","fixation","","",""
"515","Set1/147a.jpg","79","image-keyboard-response","348","376426","0.0-3.0-1.172","","","Update","n","false"
"null","<div style=""font-size:60px;"">+</div>","null","html-keyboard-response","349","376927","0.0-3.0-0.173","","fixation","","",""
"686","Set1/155a.jpg","79","image-keyboard-response","350","377614","0.0-3.0-1.173","","","Update","o","true"
"null","<div style=""font-size:60px;"">+</div>","null","html-keyboard-response","351","378116","0.0-3.0-0.174","","fixation","","",""
"870","Set1/002a.jpg","78","image-keyboard-response","352","378988","0.0-3.0-1.174","","","Set_1_Only","n","true"
"null","<div style=""font-size:60px;"">+</div>","null","html-keyboard-response","353","379490","0.0-3.0-0.175","","fixation","","",""
"1116","Set1/033a.jpg","78","image-keyboard-response","354","380608","0.0-3.0-1.175","","","Repeat","n","true"
"null","<div style=""font-size:60px;"">+</div>","null","html-keyboard-response","355","381109","0.0-3.0-0.176","","fixation","","",""
"742","Set1/102a.jpg","78","image-keyboard-response","356","381852","0.0-3.0-1.176","","","Update","n","true"
"null","<div style=""font-size:60px;"">+</div>","null","html-keyboard-response","357","382354","0.0-3.0-0.177","","fixation","","",""
"724","Set1/057a.jpg","78","image-keyboard-response","358","383079","0.0-3.0-1.177","","","Repeat","n","true"
"null","<div style=""font-size:60px;"">+</div>","null","html-keyboard-response","359","383581","0.0-3.0-0.178","","fixation","","",""
"634","Set1/147a.jpg","79","image-keyboard-response","360","384216","0.0-3.0-1.178","","","Update","o","true"
"null","<div style=""font-size:60px;"">+</div>","null","html-keyboard-response","361","384718","0.0-3.0-0.179","","fixation","","",""
"664","Set1/057a.jpg","78","image-keyboard-response","362","385383","0.0-3.0-1.179","","","Repeat","o","false"
"null","<div style=""font-size:60px;"">+</div>","null","html-keyboard-response","363","385885","0.0-3.0-0.180","","fixation","","",""
"2126","Set1/131a.jpg","79","image-keyboard-response","364","388013","0.0-3.0-1.180","","","Update","n","false"
"null","<div style=""font-size:60px;"">+</div>","null","html-keyboard-response","365","388515","0.0-3.0-0.181","","fixation","","",""
"1034","Set1/032a.jpg","78","image-keyboard-response","366","389549","0.0-3.0-1.181","","","Set_1_Only","n","true"
"null","<div style=""font-size:60px;"">+</div>","null","html-keyboard-response","367","390051","0.0-3.0-0.182","","fixation","","",""
"976","Set1/065a.jpg","78","image-keyboard-response","368","391028","0.0-3.0-1.182","","","Repeat","n","true"
"null","<div style=""font-size:60px;"">+</div>","null","html-keyboard-response","369","391530","0.0-3.0-0.183","","fixation","","",""
"1076","Set1/149a.jpg","78","image-keyboard-response","370","392607","0.0-3.0-1.183","","","Update","n","true"
"null","<div style=""font-size:60px;"">+</div>","null","html-keyboard-response","371","393109","0.0-3.0-0.184","","fixation","","",""
"642","Set1/065a.jpg","79","image-keyboard-response","372","393753","0.0-3.0-1.184","","","Repeat","o","true"
"null","<div style=""font-size:60px;"">+</div>","null","html-keyboard-response","373","394255","0.0-3.0-0.185","","fixation","","",""
"974","Set1/089a.jpg","78","image-keyboard-response","374","395230","0.0-3.0-1.185","","","Repeat","n","true"
"null","<div style=""font-size:60px;"">+</div>","null","html-keyboard-response","375","395732","0.0-3.0-0.186","","fixation","","",""
"990","Set1/144a.jpg","78","image-keyboard-response","376","396723","0.0-3.0-1.186","","","Update","n","true"
"null","<div style=""font-size:60px;"">+</div>","null","html-keyboard-response","377","397225","0.0-3.0-0.187","","fixation","","",""
"1019","Set1/069a.jpg","78","image-keyboard-response","378","398245","0.0-3.0-1.187","","","Repeat","n","true"
"null","<div style=""font-size:60px;"">+</div>","null","html-keyboard-response","379","398747","0.0-3.0-0.188","","fixation","","",""
"1010","Set1/129a.jpg","78","image-keyboard-response","380","399758","0.0-3.0-1.188","","","Update","n","true"
"null","<div style=""font-size:60px;"">+</div>","null","html-keyboard-response","381","400259","0.0-3.0-0.189","","fixation","","",""
"694","Set1/032a.jpg","79","image-keyboard-response","382","400953","0.0-3.0-1.189","","","Set_1_Only","o","true"
"null","<div style=""font-size:60px;"">+</div>","null","html-keyboard-response","383","401455","0.0-3.0-0.190","","fixation","","",""
"1016","Set1/024a.jpg","78","image-keyboard-response","384","402471","0.0-3.0-1.190","","","Set_1_Only","n","true"
"null","<div style=""font-size:60px;"">+</div>","null","html-keyboard-response","385","402973","0.0-3.0-0.191","","fixation","","",""
"816","Set1/078a.jpg","78","image-keyboard-response","386","403790","0.0-3.0-1.191","","","Repeat","n","true"
"null","<div style=""font-size:60px;"">+</div>","null","html-keyboard-response","387","404292","0.0-3.0-0.192","","fixation","","",""
"895","Set1/103a.jpg","78","image-keyboard-response","388","405187","0.0-3.0-1.192","","","Update","n","true"
"null","<div style=""font-size:60px;"">+</div>","null","html-keyboard-response","389","405689","0.0-3.0-0.193","","fixation","","",""
"656","Set1/130a.jpg","79","image-keyboard-response","390","406345","0.0-3.0-1.193","","","Update","o","true"
"null","<div style=""font-size:60px;"">+</div>","null","html-keyboard-response","391","406847","0.0-3.0-0.194","","fixation","","",""
"779","Set1/022a.jpg","78","image-keyboard-response","392","407627","0.0-3.0-1.194","","","Set_1_Only","n","true"
"null","<div style=""font-size:60px;"">+</div>","null","html-keyboard-response","393","408129","0.0-3.0-0.195","","fixation","","",""
"1368","Set1/124a.jpg","78","image-keyboard-response","394","409498","0.0-3.0-1.195","","","Update","n","true"
"null","<div style=""font-size:60px;"">+</div>","null","html-keyboard-response","395","410000","0.0-3.0-0.196","","fixation","","",""
"847","Set1/068a.jpg","79","image-keyboard-response","396","410848","0.0-3.0-1.196","","","Repeat","o","true"
"null","<div style=""font-size:60px;"">+</div>","null","html-keyboard-response","397","411350","0.0-3.0-0.197","","fixation","","",""
"1006","Set1/078a.jpg","78","image-keyboard-response","398","412356","0.0-3.0-1.197","","","Repeat","o","false"
"null","<div style=""font-size:60px;"">+</div>","null","html-keyboard-response","399","412857","0.0-3.0-0.198","","fixation","","",""
"625","Set1/137a.jpg","79","image-keyboard-response","400","413483","0.0-3.0-1.198","","","Update","o","true"
"null","<div style=""font-size:60px;"">+</div>","null","html-keyboard-response","401","413985","0.0-3.0-0.199","","fixation","","",""
"963","Set1/118a.jpg","78","image-keyboard-response","402","414949","0.0-3.0-1.199","","","Update","n","true"
"null","<div style=""font-size:60px;"">+</div>","null","html-keyboard-response","403","415452","0.0-3.0-0.200","","fixation","","",""
"875","Set1/149a.jpg","79","image-keyboard-response","404","416327","0.0-3.0-1.200","","","Update","o","true"
"null","<div style=""font-size:60px;"">+</div>","null","html-keyboard-response","405","416829","0.0-3.0-0.201","","fixation","","",""
"736","Set1/002a.jpg","79","image-keyboard-response","406","417566","0.0-3.0-1.201","","","Set_1_Only","o","true"
"null","<div style=""font-size:60px;"">+</div>","null","html-keyboard-response","407","418068","0.0-3.0-0.202","","fixation","","",""
"731","Set1/103a.jpg","79","image-keyboard-response","408","418799","0.0-3.0-1.202","","","Update","o","true"
"null","<div style=""font-size:60px;"">+</div>","null","html-keyboard-response","409","419300","0.0-3.0-0.203","","fixation","","",""
"903","Set1/012a.jpg","78","image-keyboard-response","410","420204","0.0-3.0-1.203","","","Set_1_Only","n","true"
"null","<div style=""font-size:60px;"">+</div>","null","html-keyboard-response","411","420706","0.0-3.0-0.204","","fixation","","",""
"1374","Set1/104a.jpg","78","image-keyboard-response","412","422081","0.0-3.0-1.204","","","Update","n","true"
"null","<div style=""font-size:60px;"">+</div>","null","html-keyboard-response","413","422583","0.0-3.0-0.205","","fixation","","",""
"1075","Set1/080a.jpg","78","image-keyboard-response","414","423659","0.0-3.0-1.205","","","Repeat","n","true"
"null","<div style=""font-size:60px;"">+</div>","null","html-keyboard-response","415","424161","0.0-3.0-0.206","","fixation","","",""
"915","Set1/040a.jpg","78","image-keyboard-response","416","425077","0.0-3.0-1.206","","","Repeat","n","true"
"null","<div style=""font-size:60px;"">+</div>","null","html-keyboard-response","417","425579","0.0-3.0-0.207","","fixation","","",""
"680","Set1/145a.jpg","78","image-keyboard-response","418","426260","0.0-3.0-1.207","","","Update","n","true"
"null","<div style=""font-size:60px;"">+</div>","null","html-keyboard-response","419","426762","0.0-3.0-0.208","","fixation","","",""
"766","Set1/004a.jpg","79","image-keyboard-response","420","427528","0.0-3.0-1.208","","","Set_1_Only","o","true"
"null","<div style=""font-size:60px;"">+</div>","null","html-keyboard-response","421","428030","0.0-3.0-0.209","","fixation","","",""
"822","Set1/073a.jpg","78","image-keyboard-response","422","428853","0.0-3.0-1.209","","","Repeat","n","true"
"null","<div style=""font-size:60px;"">+</div>","null","html-keyboard-response","423","429355","0.0-3.0-0.210","","fixation","","",""
"837","Set1/144a.jpg","79","image-keyboard-response","424","430192","0.0-3.0-1.210","","","Update","o","true"
"null","<div style=""font-size:60px;"">+</div>","null","html-keyboard-response","425","430693","0.0-3.0-0.211","","fixation","","",""
"909","Set1/145a.jpg","78","image-keyboard-response","426","431603","0.0-3.0-1.211","","","Update","o","false"
"null","<div style=""font-size:60px;"">+</div>","null","html-keyboard-response","427","432104","0.0-3.0-0.212","","fixation","","",""
"817","Set1/124a.jpg","79","image-keyboard-response","428","432923","0.0-3.0-1.212","","","Update","o","true"
"null","<div style=""font-size:60px;"">+</div>","null","html-keyboard-response","429","433424","0.0-3.0-0.213","","fixation","","",""
"1039","Set1/040a.jpg","79","image-keyboard-response","430","434465","0.0-3.0-1.213","","","Repeat","o","true"
"null","<div style=""font-size:60px;"">+</div>","null","html-keyboard-response","431","434967","0.0-3.0-0.214","","fixation","","",""
"972","Set1/069a.jpg","79","image-keyboard-response","432","435939","0.0-3.0-1.214","","","Repeat","o","true"
"null","<div style=""font-size:60px;"">+</div>","null","html-keyboard-response","433","436441","0.0-3.0-0.215","","fixation","","",""
"930","Set1/143a.jpg","78","image-keyboard-response","434","437372","0.0-3.0-1.215","","","Update","n","true"
"null","<div style=""font-size:60px;"">+</div>","null","html-keyboard-response","435","437873","0.0-3.0-0.216","","fixation","","",""
"972","Set1/024a.jpg","79","image-keyboard-response","436","438846","0.0-3.0-1.216","","","Set_1_Only","o","true"
"null","<div style=""font-size:60px;"">+</div>","null","html-keyboard-response","437","439347","0.0-3.0-0.217","","fixation","","",""
"1013","Set1/131a.jpg","79","image-keyboard-response","438","440361","0.0-3.0-1.217","","","Update","o","true"
"null","<div style=""font-size:60px;"">+</div>","null","html-keyboard-response","439","440863","0.0-3.0-0.218","","fixation","","",""
"1142","Set1/094a.jpg","78","image-keyboard-response","440","442006","0.0-3.0-1.218","","","Repeat","n","true"
"null","<div style=""font-size:60px;"">+</div>","null","html-keyboard-response","441","442508","0.0-3.0-0.219","","fixation","","",""
"748","Set1/104a.jpg","79","image-keyboard-response","442","443257","0.0-3.0-1.219","","","Update","o","true"
"null","<div style=""font-size:60px;"">+</div>","null","html-keyboard-response","443","443759","0.0-3.0-0.220","","fixation","","",""
"1100","Set1/080a.jpg","79","image-keyboard-response","444","444860","0.0-3.0-1.220","","","Repeat","o","true"
"null","<div style=""font-size:60px;"">+</div>","null","html-keyboard-response","445","445362","0.0-3.0-0.221","","fixation","","",""
"829","Set1/060a.jpg","79","image-keyboard-response","446","446192","0.0-3.0-1.221","","","Repeat","o","true"
"null","<div style=""font-size:60px;"">+</div>","null","html-keyboard-response","447","446694","0.0-3.0-0.222","","fixation","","",""
"1646","Set1/129a.jpg","79","image-keyboard-response","448","448341","0.0-3.0-1.222","","","Update","o","true"
"null","<div style=""font-size:60px;"">+</div>","null","html-keyboard-response","449","448843","0.0-3.0-0.223","","fixation","","",""
"823","Set1/089a.jpg","79","image-keyboard-response","450","449667","0.0-3.0-1.223","","","Repeat","o","true"
"null","<div style=""font-size:60px;"">+</div>","null","html-keyboard-response","451","450169","0.0-3.0-0.224","","fixation","","",""
"979","Set1/159a.jpg","79","image-keyboard-response","452","451149","0.0-3.0-1.224","","","Update","o","true"
"null","<div style=""font-size:60px;"">+</div>","null","html-keyboard-response","453","451651","0.0-3.0-0.225","","fixation","","",""
"921","Set1/135a.jpg","78","image-keyboard-response","454","452573","0.0-3.0-1.225","","","Update","n","true"
"null","<div style=""font-size:60px;"">+</div>","null","html-keyboard-response","455","453075","0.0-3.0-0.226","","fixation","","",""
"879","Set1/116a.jpg","78","image-keyboard-response","456","453955","0.0-3.0-1.226","","","Update","n","true"
"null","<div style=""font-size:60px;"">+</div>","null","html-keyboard-response","457","454457","0.0-3.0-0.227","","fixation","","",""
"874","Set1/102a.jpg","79","image-keyboard-response","458","455333","0.0-3.0-1.227","","","Update","o","true"
"null","<div style=""font-size:60px;"">+</div>","null","html-keyboard-response","459","455835","0.0-3.0-0.228","","fixation","","",""
"813","Set1/022a.jpg","79","image-keyboard-response","460","456648","0.0-3.0-1.228","","","Set_1_Only","o","true"
"null","<div style=""font-size:60px;"">+</div>","null","html-keyboard-response","461","457150","0.0-3.0-0.229","","fixation","","",""
"763","Set1/094a.jpg","79","image-keyboard-response","462","457913","0.0-3.0-1.229","","","Repeat","o","true"
"null","<div style=""font-size:60px;"">+</div>","null","html-keyboard-response","463","458415","0.0-3.0-0.230","","fixation","","",""
"1414","Set1/118a.jpg","79","image-keyboard-response","464","459831","0.0-3.0-1.230","","","Update","o","true"
"null","<div style=""font-size:60px;"">+</div>","null","html-keyboard-response","465","460332","0.0-3.0-0.231","","fixation","","",""
"924","Set1/033a.jpg","79","image-keyboard-response","466","461258","0.0-3.0-1.231","","","Repeat","o","true"
"null","<div style=""font-size:60px;"">+</div>","null","html-keyboard-response","467","461760","0.0-3.0-0.232","","fixation","","",""
"1055","Set1/117a.jpg","79","image-keyboard-response","468","462816","0.0-3.0-1.232","","","Update","o","true"
"null","<div style=""font-size:60px;"">+</div>","null","html-keyboard-response","469","463318","0.0-3.0-0.233","","fixation","","",""
"1189","Set1/135a.jpg","79","image-keyboard-response","470","464508","0.0-3.0-1.233","","","Update","o","true"
"null","<div style=""font-size:60px;"">+</div>","null","html-keyboard-response","471","465009","0.0-3.0-0.234","","fixation","","",""
"833","Set1/116a.jpg","79","image-keyboard-response","472","465844","0.0-3.0-1.234","","","Update","o","true"
"null","<div style=""font-size:60px;"">+</div>","null","html-keyboard-response","473","466346","0.0-3.0-0.235","","fixation","","",""
"761","Set1/143a.jpg","79","image-keyboard-response","474","467107","0.0-3.0-1.235","","","Update","o","true"
"null","<div style=""font-size:60px;"">+</div>","null","html-keyboard-response","475","467609","0.0-3.0-0.236","","fixation","","",""
"799","Set1/074a.jpg","79","image-keyboard-response","476","468410","0.0-3.0-1.236","","","Repeat","o","true"
"null","<div style=""font-size:60px;"">+</div>","null","html-keyboard-response","477","468911","0.0-3.0-0.237","","fixation","","",""
"1035","Set1/012a.jpg","79","image-keyboard-response","478","469947","0.0-3.0-1.237","","","Set_1_Only","o","true"
"null","<div style=""font-size:60px;"">+</div>","null","html-keyboard-response","479","470449","0.0-3.0-0.238","","fixation","","",""
"783","Set1/062a.jpg","79","image-keyboard-response","480","471233","0.0-3.0-1.238","","","Repeat","o","true"
"null","<div style=""font-size:60px;"">+</div>","null","html-keyboard-response","481","471735","0.0-3.0-0.239","","fixation","","",""
"639","Set1/073a.jpg","79","image-keyboard-response","482","472375","0.0-3.0-1.239","","","Repeat","o","true"
"null","<div style=""font-size:60px;"">+</div>","null","html-keyboard-response","483","472877","0.0-3.0-0.240","","fixation","","",""
"1150","Set1/029a.jpg","78","image-keyboard-response","484","474028","0.0-3.0-1.240","","","Set_1_Only","n","true"
"null","<div style=""font-size:60px;"">+</div>","null","html-keyboard-response","485","474530","0.0-3.0-0.241","","fixation","","",""
"774","Set1/098a.jpg","78","image-keyboard-response","486","475306","0.0-3.0-1.241","","","Update","n","true"
"null","<div style=""font-size:60px;"">+</div>","null","html-keyboard-response","487","475808","0.0-3.0-0.242","","fixation","","",""
"865","Set1/086a.jpg","78","image-keyboard-response","488","476673","0.0-3.0-1.242","","","Repeat","n","true"
"null","<div style=""font-size:60px;"">+</div>","null","html-keyboard-response","489","477175","0.0-3.0-0.243","","fixation","","",""
"788","Set1/070a.jpg","78","image-keyboard-response","490","477965","0.0-3.0-1.243","","","Repeat","n","true"
"null","<div style=""font-size:60px;"">+</div>","null","html-keyboard-response","491","478466","0.0-3.0-0.244","","fixation","","",""
"1085","Set1/091a.jpg","78","image-keyboard-response","492","479553","0.0-3.0-1.244","","","Repeat","n","true"
"null","<div style=""font-size:60px;"">+</div>","null","html-keyboard-response","493","480055","0.0-3.0-0.245","","fixation","","",""
"708","Set1/043a.jpg","78","image-keyboard-response","494","480764","0.0-3.0-1.245","","","Repeat","n","true"
"null","<div style=""font-size:60px;"">+</div>","null","html-keyboard-response","495","481265","0.0-3.0-0.246","","fixation","","",""
"579","Set1/083a.jpg","78","image-keyboard-response","496","481846","0.0-3.0-1.246","","","Repeat","n","true"
"null","<div style=""font-size:60px;"">+</div>","null","html-keyboard-response","497","482347","0.0-3.0-0.247","","fixation","","",""
"707","Set1/011a.jpg","78","image-keyboard-response","498","483056","0.0-3.0-1.247","","","Set_1_Only","n","true"
"null","<div style=""font-size:60px;"">+</div>","null","html-keyboard-response","499","483558","0.0-3.0-0.248","","fixation","","",""
"677","Set1/142a.jpg","78","image-keyboard-response","500","484235","0.0-3.0-1.248","","","Update","n","true"
"null","<div style=""font-size:60px;"">+</div>","null","html-keyboard-response","501","484737","0.0-3.0-0.249","","fixation","","",""
"727","Set1/061a.jpg","78","image-keyboard-response","502","485465","0.0-3.0-1.249","","","Repeat","n","true"
"null","<div style=""font-size:60px;"">+</div>","null","html-keyboard-response","503","485967","0.0-3.0-0.250","","fixation","","",""
"771","Set1/007a.jpg","78","image-keyboard-response","504","486740","0.0-3.0-1.250","","","Set_1_Only","n","true"
"null","<div style=""font-size:60px;"">+</div>","null","html-keyboard-response","505","487241","0.0-3.0-0.251","","fixation","","",""
"728","Set1/039a.jpg","78","image-keyboard-response","506","487970","0.0-3.0-1.251","","","Repeat","n","true"
"null","<div style=""font-size:60px;"">+</div>","null","html-keyboard-response","507","488472","0.0-3.0-0.252","","fixation","","",""
"822","Set1/023a.jpg","78","image-keyboard-response","508","489295","0.0-3.0-1.252","","","Set_1_Only","n","true"
"null","<div style=""font-size:60px;"">+</div>","null","html-keyboard-response","509","489797","0.0-3.0-0.253","","fixation","","",""
"723","Set1/001a.jpg","78","image-keyboard-response","510","490521","0.0-3.0-1.253","","","Set_1_Only","n","true"
"null","<div style=""font-size:60px;"">+</div>","null","html-keyboard-response","511","491023","0.0-3.0-0.254","","fixation","","",""
"667","Set1/038a.jpg","78","image-keyboard-response","512","491690","0.0-3.0-1.254","","","Repeat","n","true"
"null","<div style=""font-size:60px;"">+</div>","null","html-keyboard-response","513","492192","0.0-3.0-0.255","","fixation","","",""
"707","Set1/126a.jpg","78","image-keyboard-response","514","492900","0.0-3.0-1.255","","","Update","n","true"
"null","<div style=""font-size:60px;"">+</div>","null","html-keyboard-response","515","493402","0.0-3.0-0.256","","fixation","","",""
"906","Set1/021a.jpg","78","image-keyboard-response","516","494310","0.0-3.0-1.256","","","Set_1_Only","n","true"
"null","<div style=""font-size:60px;"">+</div>","null","html-keyboard-response","517","494811","0.0-3.0-0.257","","fixation","","",""
"823","Set1/109a.jpg","78","image-keyboard-response","518","495636","0.0-3.0-1.257","","","Update","n","true"
"null","<div style=""font-size:60px;"">+</div>","null","html-keyboard-response","519","496137","0.0-3.0-0.258","","fixation","","",""
"608","Set1/099a.jpg","78","image-keyboard-response","520","496746","0.0-3.0-1.258","","","Update","n","true"
"null","<div style=""font-size:60px;"">+</div>","null","html-keyboard-response","521","497248","0.0-3.0-0.259","","fixation","","",""
"708","Set1/122a.jpg","78","image-keyboard-response","522","497957","0.0-3.0-1.259","","","Update","n","true"
"null","<div style=""font-size:60px;"">+</div>","null","html-keyboard-response","523","498459","0.0-3.0-0.260","","fixation","","",""
"636","Set1/023a.jpg","79","image-keyboard-response","524","499096","0.0-3.0-1.260","","","Set_1_Only","o","true"
"null","<div style=""font-size:60px;"">+</div>","null","html-keyboard-response","525","499598","0.0-3.0-0.261","","fixation","","",""
"756","Set1/017a.jpg","78","image-keyboard-response","526","500355","0.0-3.0-1.261","","","Set_1_Only","n","true"
"null","<div style=""font-size:60px;"">+</div>","null","html-keyboard-response","527","500857","0.0-3.0-0.262","","fixation","","",""
"1185","Set1/132a.jpg","79","image-keyboard-response","528","502043","0.0-3.0-1.262","","","Update","n","false"
"null","<div style=""font-size:60px;"">+</div>","null","html-keyboard-response","529","502545","0.0-3.0-0.263","","fixation","","",""
"1515","Set1/042a.jpg","78","image-keyboard-response","530","504061","0.0-3.0-1.263","","","Repeat","n","true"
"null","<div style=""font-size:60px;"">+</div>","null","html-keyboard-response","531","504563","0.0-3.0-0.264","","fixation","","",""
"770","Set1/087a.jpg","78","image-keyboard-response","532","505334","0.0-3.0-1.264","","","Repeat","n","true"
"null","<div style=""font-size:60px;"">+</div>","null","html-keyboard-response","533","505836","0.0-3.0-0.265","","fixation","","",""
"885","Set1/101a.jpg","78","image-keyboard-response","534","506722","0.0-3.0-1.265","","","Update","n","true"
"null","<div style=""font-size:60px;"">+</div>","null","html-keyboard-response","535","507224","0.0-3.0-0.266","","fixation","","",""
"1199","Set1/066a.jpg","78","image-keyboard-response","536","508424","0.0-3.0-1.266","","","Repeat","n","true"
"null","<div style=""font-size:60px;"">+</div>","null","html-keyboard-response","537","508925","0.0-3.0-0.267","","fixation","","",""
"688","Set1/091a.jpg","79","image-keyboard-response","538","509614","0.0-3.0-1.267","","","Repeat","o","true"
"null","<div style=""font-size:60px;"">+</div>","null","html-keyboard-response","539","510116","0.0-3.0-0.268","","fixation","","",""
"924","Set1/077a.jpg","78","image-keyboard-response","540","511041","0.0-3.0-1.268","","","Repeat","n","true"
"null","<div style=""font-size:60px;"">+</div>","null","html-keyboard-response","541","511543","0.0-3.0-0.269","","fixation","","",""
"1127","Set1/042a.jpg","79","image-keyboard-response","542","512672","0.0-3.0-1.269","","","Repeat","o","true"
"null","<div style=""font-size:60px;"">+</div>","null","html-keyboard-response","543","513174","0.0-3.0-0.270","","fixation","","",""
"1192","Set1/018a.jpg","78","image-keyboard-response","544","514366","0.0-3.0-1.270","","","Set_1_Only","n","true"
"null","<div style=""font-size:60px;"">+</div>","null","html-keyboard-response","545","514868","0.0-3.0-0.271","","fixation","","",""
"813","Set1/058a.jpg","78","image-keyboard-response","546","515683","0.0-3.0-1.271","","","Repeat","n","true"
"null","<div style=""font-size:60px;"">+</div>","null","html-keyboard-response","547","516184","0.0-3.0-0.272","","fixation","","",""
"754","Set1/132a.jpg","78","image-keyboard-response","548","516939","0.0-3.0-1.272","","","Update","o","false"
"null","<div style=""font-size:60px;"">+</div>","null","html-keyboard-response","549","517440","0.0-3.0-0.273","","fixation","","",""
"704","Set1/038a.jpg","79","image-keyboard-response","550","518145","0.0-3.0-1.273","","","Repeat","o","true"
"null","<div style=""font-size:60px;"">+</div>","null","html-keyboard-response","551","518647","0.0-3.0-0.274","","fixation","","",""
"753","Set1/066a.jpg","79","image-keyboard-response","552","519400","0.0-3.0-1.274","","","Repeat","o","true"
"null","<div style=""font-size:60px;"">+</div>","null","html-keyboard-response","553","519902","0.0-3.0-0.275","","fixation","","",""
"748","Set1/099a.jpg","79","image-keyboard-response","554","520651","0.0-3.0-1.275","","","Update","o","true"
"null","<div style=""font-size:60px;"">+</div>","null","html-keyboard-response","555","521153","0.0-3.0-0.276","","fixation","","",""
"715","Set1/126a.jpg","79","image-keyboard-response","556","521869","0.0-3.0-1.276","","","Update","o","true"
"null","<div style=""font-size:60px;"">+</div>","null","html-keyboard-response","557","522371","0.0-3.0-0.277","","fixation","","",""
"1033","Set1/009a.jpg","78","image-keyboard-response","558","523406","0.0-3.0-1.277","","","Set_1_Only","n","true"
"null","<div style=""font-size:60px;"">+</div>","null","html-keyboard-response","559","523906","0.0-3.0-0.278","","fixation","","",""
"902","Set1/046a.jpg","78","image-keyboard-response","560","524809","0.0-3.0-1.278","","","Repeat","n","true"
"null","<div style=""font-size:60px;"">+</div>","null","html-keyboard-response","561","525311","0.0-3.0-0.279","","fixation","","",""
"622","Set1/039a.jpg","79","image-keyboard-response","562","525933","0.0-3.0-1.279","","","Repeat","o","true"
"null","<div style=""font-size:60px;"">+</div>","null","html-keyboard-response","563","526435","0.0-3.0-0.280","","fixation","","",""
"680","Set1/001a.jpg","79","image-keyboard-response","564","527115","0.0-3.0-1.280","","","Set_1_Only","o","true"
"null","<div style=""font-size:60px;"">+</div>","null","html-keyboard-response","565","527617","0.0-3.0-0.281","","fixation","","",""
"712","Set1/122a.jpg","79","image-keyboard-response","566","528330","0.0-3.0-1.281","","","Update","o","true"
"null","<div style=""font-size:60px;"">+</div>","null","html-keyboard-response","567","528831","0.0-3.0-0.282","","fixation","","",""
"693","Set1/086a.jpg","78","image-keyboard-response","568","529525","0.0-3.0-1.282","","","Repeat","o","false"
"null","<div style=""font-size:60px;"">+</div>","null","html-keyboard-response","569","530026","0.0-3.0-0.283","","fixation","","",""
"701","Set1/046a.jpg","79","image-keyboard-response","570","530729","0.0-3.0-1.283","","","Repeat","o","true"
"null","<div style=""font-size:60px;"">+</div>","null","html-keyboard-response","571","531231","0.0-3.0-0.284","","fixation","","",""
"759","Set1/043a.jpg","79","image-keyboard-response","572","531991","0.0-3.0-1.284","","","Repeat","o","true"
"null","<div style=""font-size:60px;"">+</div>","null","html-keyboard-response","573","532493","0.0-3.0-0.285","","fixation","","",""
"1877","Set1/016a.jpg","78","image-keyboard-response","574","534371","0.0-3.0-1.285","","","Set_1_Only","n","true"
"null","<div style=""font-size:60px;"">+</div>","null","html-keyboard-response","575","534873","0.0-3.0-0.286","","fixation","","",""
"798","Set1/090a.jpg","78","image-keyboard-response","576","535672","0.0-3.0-1.286","","","Repeat","n","true"
"null","<div style=""font-size:60px;"">+</div>","null","html-keyboard-response","577","536174","0.0-3.0-0.287","","fixation","","",""
"805","Set1/141a.jpg","78","image-keyboard-response","578","536980","0.0-3.0-1.287","","","Update","n","true"
"null","<div style=""font-size:60px;"">+</div>","null","html-keyboard-response","579","537482","0.0-3.0-0.288","","fixation","","",""
"860","Set1/090a.jpg","78","image-keyboard-response","580","538343","0.0-3.0-1.288","","","Repeat","o","false"
"null","<div style=""font-size:60px;"">+</div>","null","html-keyboard-response","581","538844","0.0-3.0-0.289","","fixation","","",""
"834","Set1/139a.jpg","78","image-keyboard-response","582","539679","0.0-3.0-1.289","","","Update","n","true"
"null","<div style=""font-size:60px;"">+</div>","null","html-keyboard-response","583","540181","0.0-3.0-0.290","","fixation","","",""
"1059","Set1/101a.jpg","79","image-keyboard-response","584","541241","0.0-3.0-1.290","","","Update","o","true"
"null","<div style=""font-size:60px;"">+</div>","null","html-keyboard-response","585","541742","0.0-3.0-0.291","","fixation","","",""
"850","Set1/092a.jpg","78","image-keyboard-response","586","542594","0.0-3.0-1.291","","","Repeat","n","true"
"null","<div style=""font-size:60px;"">+</div>","null","html-keyboard-response","587","543096","0.0-3.0-0.292","","fixation","","",""
"694","Set1/087a.jpg","79","image-keyboard-response","588","543790","0.0-3.0-1.292","","","Repeat","o","true"
"null","<div style=""font-size:60px;"">+</div>","null","html-keyboard-response","589","544291","0.0-3.0-0.293","","fixation","","",""
"766","Set1/034a.jpg","78","image-keyboard-response","590","545058","0.0-3.0-1.293","","","Repeat","n","true"
"null","<div style=""font-size:60px;"">+</div>","null","html-keyboard-response","591","545560","0.0-3.0-0.294","","fixation","","",""
"1025","Set1/153a.jpg","78","image-keyboard-response","592","546586","0.0-3.0-1.294","","","Update","n","true"
"null","<div style=""font-size:60px;"">+</div>","null","html-keyboard-response","593","547088","0.0-3.0-0.295","","fixation","","",""
"1268","Set1/092a.jpg","79","image-keyboard-response","594","548356","0.0-3.0-1.295","","","Repeat","o","true"
"null","<div style=""font-size:60px;"">+</div>","null","html-keyboard-response","595","548858","0.0-3.0-0.296","","fixation","","",""
"1035","Set1/077a.jpg","79","image-keyboard-response","596","549893","0.0-3.0-1.296","","","Repeat","o","true"
"null","<div style=""font-size:60px;"">+</div>","null","html-keyboard-response","597","550395","0.0-3.0-0.297","","fixation","","",""
"969","Set1/112a.jpg","78","image-keyboard-response","598","551366","0.0-3.0-1.297","","","Update","n","true"
"null","<div style=""font-size:60px;"">+</div>","null","html-keyboard-response","599","551868","0.0-3.0-0.298","","fixation","","",""
"1057","Set1/018a.jpg","79","image-keyboard-response","600","552925","0.0-3.0-1.298","","","Set_1_Only","o","true"
"null","<div style=""font-size:60px;"">+</div>","null","html-keyboard-response","601","553427","0.0-3.0-0.299","","fixation","","",""
"1176","Set1/139a.jpg","79","image-keyboard-response","602","554604","0.0-3.0-1.299","","","Update","o","true"
"null","<div style=""font-size:60px;"">+</div>","null","html-keyboard-response","603","555106","0.0-3.0-0.300","","fixation","","",""
"937","Set1/153a.jpg","79","image-keyboard-response","604","556044","0.0-3.0-1.300","","","Update","o","true"
"null","<div style=""font-size:60px;"">+</div>","null","html-keyboard-response","605","556546","0.0-3.0-0.301","","fixation","","",""
"741","Set1/017a.jpg","79","image-keyboard-response","606","557288","0.0-3.0-1.301","","","Set_1_Only","o","true"
"null","<div style=""font-size:60px;"">+</div>","null","html-keyboard-response","607","557790","0.0-3.0-0.302","","fixation","","",""
"718","Set1/112a.jpg","79","image-keyboard-response","608","558509","0.0-3.0-1.302","","","Update","o","true"
"null","<div style=""font-size:60px;"">+</div>","null","html-keyboard-response","609","559011","0.0-3.0-0.303","","fixation","","",""
"740","Set1/109a.jpg","79","image-keyboard-response","610","559753","0.0-3.0-1.303","","","Update","o","true"
"null","<div style=""font-size:60px;"">+</div>","null","html-keyboard-response","611","560255","0.0-3.0-0.304","","fixation","","",""
"640","Set1/021a.jpg","79","image-keyboard-response","612","560896","0.0-3.0-1.304","","","Set_1_Only","o","true"
"null","<div style=""font-size:60px;"">+</div>","null","html-keyboard-response","613","561398","0.0-3.0-0.305","","fixation","","",""
"673","Set1/142a.jpg","79","image-keyboard-response","614","562072","0.0-3.0-1.305","","","Update","o","true"
"null","<div style=""font-size:60px;"">+</div>","null","html-keyboard-response","615","562573","0.0-3.0-0.306","","fixation","","",""
"928","Set1/113a.jpg","78","image-keyboard-response","616","563502","0.0-3.0-1.306","","","Update","n","true"
"null","<div style=""font-size:60px;"">+</div>","null","html-keyboard-response","617","564004","0.0-3.0-0.307","","fixation","","",""
"798","Set1/016a.jpg","79","image-keyboard-response","618","564804","0.0-3.0-1.307","","","Set_1_Only","o","true"
"null","<div style=""font-size:60px;"">+</div>","null","html-keyboard-response","619","565305","0.0-3.0-0.308","","fixation","","",""
"1475","Set1/061a.jpg","79","image-keyboard-response","620","566780","0.0-3.0-1.308","","","Repeat","o","true"
"null","<div style=""font-size:60px;"">+</div>","null","html-keyboard-response","621","567282","0.0-3.0-0.309","","fixation","","",""
"1731","Set1/009a.jpg","79","image-keyboard-response","622","569013","0.0-3.0-1.309","","","Set_1_Only","o","true"
"null","<div style=""font-size:60px;"">+</div>","null","html-keyboard-response","623","569515","0.0-3.0-0.310","","fixation","","",""
"900","Set1/141a.jpg","79","image-keyboard-response","624","570415","0.0-3.0-1.310","","","Update","o","true"
"null","<div style=""font-size:60px;"">+</div>","null","html-keyboard-response","625","570918","0.0-3.0-0.311","","fixation","","",""
"971","Set1/011a.jpg","79","image-keyboard-response","626","571889","0.0-3.0-1.311","","","Set_1_Only","o","true"
"null","<div style=""font-size:60px;"">+</div>","null","html-keyboard-response","627","572391","0.0-3.0-0.312","","fixation","","",""
"614","Set1/113a.jpg","79","image-keyboard-response","628","573006","0.0-3.0-1.312","","","Update","o","true"
"null","<div style=""font-size:60px;"">+</div>","null","html-keyboard-response","629","573508","0.0-3.0-0.313","","fixation","","",""
"599","Set1/058a.jpg","79","image-keyboard-response","630","574108","0.0-3.0-1.313","","","Repeat","o","true"
"null","<div style=""font-size:60px;"">+</div>","null","html-keyboard-response","631","574610","0.0-3.0-0.314","","fixation","","",""
"639","Set1/083a.jpg","79","image-keyboard-response","632","575250","0.0-3.0-1.314","","","Repeat","o","true"
"null","<div style=""font-size:60px;"">+</div>","null","html-keyboard-response","633","575752","0.0-3.0-0.315","","fixation","","",""
"902","Set1/029a.jpg","79","image-keyboard-response","634","576655","0.0-3.0-1.315","","","Set_1_Only","o","true"
"null","<div style=""font-size:60px;"">+</div>","null","html-keyboard-response","635","577157","0.0-3.0-0.316","","fixation","","",""
"812","Set1/034a.jpg","79","image-keyboard-response","636","577970","0.0-3.0-1.316","","","Repeat","o","true"
"null","<div style=""font-size:60px;"">+</div>","null","html-keyboard-response","637","578472","0.0-3.0-0.317","","fixation","","",""
"655","Set1/070a.jpg","79","image-keyboard-response","638","579128","0.0-3.0-1.317","","","Repeat","o","true"
"null","<div style=""font-size:60px;"">+</div>","null","html-keyboard-response","639","579629","0.0-3.0-0.318","","fixation","","",""
"775","Set1/098a.jpg","79","image-keyboard-response","640","580405","0.0-3.0-1.318","","","Update","o","true"
"null","<div style=""font-size:60px;"">+</div>","null","html-keyboard-response","641","580907","0.0-3.0-0.319","","fixation","","",""
"790","Set1/007a.jpg","79","image-keyboard-response","642","581698","0.0-3.0-1.319","","","Set_1_Only","o","true"
