"rt","stimulus","key_press","trial_type","trial_index","time_elapsed","internal_node_id","responses","test_part","stim_type","correct_response","correct"
"4013","Press any key to begin.","76","html-keyboard-response","0","4040","0.0-0.0","","","","",""
"11490","","","survey-text","1","15540","0.0-1.0","{""Q0"":""Set1201225"",""Q1"":""Set1201225""}","","","",""
"7513","<p>In this experiment you will see a series of everyday objects presented one at a time at the center of the screen. Each image will be presented twice. </p><p>The first time you see the image, press the N key to indicate that it is a NEW image. The second time you see the image, press the O key to indicate that it is an OLD image.</p><div style='width: 700px;'></div><p>Press any key to begin.</p>","78","html-keyboard-response","2","23061","0.0-2.0","","","","",""
"null","<div style=""font-size:60px;"">+</div>","null","html-keyboard-response","3","25593","0.0-3.0-0.0","","fixation","","",""
"727","Set1/063a.jpg","78","image-keyboard-response","4","26360","0.0-3.0-1.0","","","Repeat","n","true"
"null","<div style=""font-size:60px;"">+</div>","null","html-keyboard-response","5","26884","0.0-3.0-0.1","","fixation","","",""
"1136","Set1/064a.jpg","78","image-keyboard-response","6","28028","0.0-3.0-1.1","","","Repeat","n","true"
"null","<div style=""font-size:60px;"">+</div>","null","html-keyboard-response","7","28549","0.0-3.0-0.2","","fixation","","",""
"2184","Set1/047a.jpg","78","image-keyboard-response","8","30741","0.0-3.0-1.2","","","Repeat","n","true"
"null","<div style=""font-size:60px;"">+</div>","null","html-keyboard-response","9","31256","0.0-3.0-0.3","","fixation","","",""
"1439","Set1/025a.jpg","78","image-keyboard-response","10","32698","0.0-3.0-1.3","","","Set_1_Only","n","true"
"null","<div style=""font-size:60px;"">+</div>","null","html-keyboard-response","11","33208","0.0-3.0-0.4","","fixation","","",""
"1176","Set1/146a.jpg","78","image-keyboard-response","12","34391","0.0-3.0-1.4","","","Update","n","true"
"null","<div style=""font-size:60px;"">+</div>","null","html-keyboard-response","13","34911","0.0-3.0-0.5","","fixation","","",""
"927","Set1/020a.jpg","78","image-keyboard-response","14","35846","0.0-3.0-1.5","","","Set_1_Only","n","true"
"null","<div style=""font-size:60px;"">+</div>","null","html-keyboard-response","15","36368","0.0-3.0-0.6","","fixation","","",""
"1435","Set1/120a.jpg","78","image-keyboard-response","16","37809","0.0-3.0-1.6","","","Update","n","true"
"null","<div style=""font-size:60px;"">+</div>","null","html-keyboard-response","17","38332","0.0-3.0-0.7","","fixation","","",""
"978","Set1/148a.jpg","78","image-keyboard-response","18","39318","0.0-3.0-1.7","","","Update","n","true"
"null","<div style=""font-size:60px;"">+</div>","null","html-keyboard-response","19","39837","0.0-3.0-0.8","","fixation","","",""
"1142","Set1/028a.jpg","78","image-keyboard-response","20","40984","0.0-3.0-1.8","","","Set_1_Only","n","true"
"null","<div style=""font-size:60px;"">+</div>","null","html-keyboard-response","21","41520","0.0-3.0-0.9","","fixation","","",""
"1012","Set1/071a.jpg","78","image-keyboard-response","22","42540","0.0-3.0-1.9","","","Repeat","n","true"
"null","<div style=""font-size:60px;"">+</div>","null","html-keyboard-response","23","43067","0.0-3.0-0.10","","fixation","","",""
"991","Set1/030a.jpg","78","image-keyboard-response","24","44063","0.0-3.0-1.10","","","Set_1_Only","n","true"
"null","<div style=""font-size:60px;"">+</div>","null","html-keyboard-response","25","44591","0.0-3.0-0.11","","fixation","","",""
"1480","Set1/037a.jpg","78","image-keyboard-response","26","46079","0.0-3.0-1.11","","","Repeat","n","true"
"null","<div style=""font-size:60px;"">+</div>","null","html-keyboard-response","27","46599","0.0-3.0-0.12","","fixation","","",""
"7109","Set1/120a.jpg","79","image-keyboard-response","28","53713","0.0-3.0-1.12","","","Update","o","true"
"null","<div style=""font-size:60px;"">+</div>","null","html-keyboard-response","29","54225","0.0-3.0-0.13","","fixation","","",""
"2227","Set1/005a.jpg","78","image-keyboard-response","30","56455","0.0-3.0-1.13","","","Set_1_Only","n","true"
"null","<div style=""font-size:60px;"">+</div>","null","html-keyboard-response","31","56986","0.0-3.0-0.14","","fixation","","",""
"1005","Set1/079a.jpg","78","image-keyboard-response","32","58004","0.0-3.0-1.14","","","Repeat","n","true"
"null","<div style=""font-size:60px;"">+</div>","null","html-keyboard-response","33","58525","0.0-3.0-0.15","","fixation","","",""
"1056","Set1/136a.jpg","78","image-keyboard-response","34","59588","0.0-3.0-1.15","","","Update","n","true"
"null","<div style=""font-size:60px;"">+</div>","null","html-keyboard-response","35","60106","0.0-3.0-0.16","","fixation","","",""
"952","Set1/133a.jpg","78","image-keyboard-response","36","61064","0.0-3.0-1.16","","","Update","n","true"
"null","<div style=""font-size:60px;"">+</div>","null","html-keyboard-response","37","61586","0.0-3.0-0.17","","fixation","","",""
"984","Set1/128a.jpg","78","image-keyboard-response","38","62577","0.0-3.0-1.17","","","Update","n","true"
"null","<div style=""font-size:60px;"">+</div>","null","html-keyboard-response","39","63100","0.0-3.0-0.18","","fixation","","",""
"1144","Set1/054a.jpg","78","image-keyboard-response","40","64247","0.0-3.0-1.18","","","Repeat","n","true"
"null","<div style=""font-size:60px;"">+</div>","null","html-keyboard-response","41","64764","0.0-3.0-0.19","","fixation","","",""
"1123","Set1/108a.jpg","78","image-keyboard-response","42","65894","0.0-3.0-1.19","","","Update","n","true"
"null","<div style=""font-size:60px;"">+</div>","null","html-keyboard-response","43","66412","0.0-3.0-0.20","","fixation","","",""
"994","Set1/050a.jpg","78","image-keyboard-response","44","67415","0.0-3.0-1.20","","","Repeat","n","true"
"null","<div style=""font-size:60px;"">+</div>","null","html-keyboard-response","45","67939","0.0-3.0-0.21","","fixation","","",""
"1029","Set1/140a.jpg","78","image-keyboard-response","46","68985","0.0-3.0-1.21","","","Update","n","true"
"null","<div style=""font-size:60px;"">+</div>","null","html-keyboard-response","47","69513","0.0-3.0-0.22","","fixation","","",""
"936","Set1/051a.jpg","78","image-keyboard-response","48","70456","0.0-3.0-1.22","","","Repeat","n","true"
"null","<div style=""font-size:60px;"">+</div>","null","html-keyboard-response","49","70979","0.0-3.0-0.23","","fixation","","",""
"822","Set1/063a.jpg","79","image-keyboard-response","50","71812","0.0-3.0-1.23","","","Repeat","o","true"
"null","<div style=""font-size:60px;"">+</div>","null","html-keyboard-response","51","72319","0.0-3.0-0.24","","fixation","","",""
"855","Set1/006a.jpg","78","image-keyboard-response","52","73183","0.0-3.0-1.24","","","Set_1_Only","n","true"
"null","<div style=""font-size:60px;"">+</div>","null","html-keyboard-response","53","73723","0.0-3.0-0.25","","fixation","","",""
"756","Set1/158a.jpg","78","image-keyboard-response","54","74481","0.0-3.0-1.25","","","Update","n","true"
"null","<div style=""font-size:60px;"">+</div>","null","html-keyboard-response","55","75015","0.0-3.0-0.26","","fixation","","",""
"982","Set1/020a.jpg","79","image-keyboard-response","56","76003","0.0-3.0-1.26","","","Set_1_Only","o","true"
"null","<div style=""font-size:60px;"">+</div>","null","html-keyboard-response","57","76524","0.0-3.0-0.27","","fixation","","",""
"895","Set1/082a.jpg","78","image-keyboard-response","58","77426","0.0-3.0-1.27","","","Repeat","n","true"
"null","<div style=""font-size:60px;"">+</div>","null","html-keyboard-response","59","77943","0.0-3.0-0.28","","fixation","","",""
"1043","Set1/107a.jpg","78","image-keyboard-response","60","78993","0.0-3.0-1.28","","","Update","n","true"
"null","<div style=""font-size:60px;"">+</div>","null","html-keyboard-response","61","79510","0.0-3.0-0.29","","fixation","","",""
"808","Set1/121a.jpg","78","image-keyboard-response","62","80324","0.0-3.0-1.29","","","Update","n","true"
"null","<div style=""font-size:60px;"">+</div>","null","html-keyboard-response","63","80843","0.0-3.0-0.30","","fixation","","",""
"1175","Set1/085a.jpg","78","image-keyboard-response","64","82026","0.0-3.0-1.30","","","Repeat","n","true"
"null","<div style=""font-size:60px;"">+</div>","null","html-keyboard-response","65","82551","0.0-3.0-0.31","","fixation","","",""
"993","Set1/136a.jpg","79","image-keyboard-response","66","83549","0.0-3.0-1.31","","","Update","o","true"
"null","<div style=""font-size:60px;"">+</div>","null","html-keyboard-response","67","84064","0.0-3.0-0.32","","fixation","","",""
"905","Set1/049a.jpg","78","image-keyboard-response","68","84975","0.0-3.0-1.32","","","Repeat","n","true"
"null","<div style=""font-size:60px;"">+</div>","null","html-keyboard-response","69","85497","0.0-3.0-0.33","","fixation","","",""
"982","Set1/133a.jpg","79","image-keyboard-response","70","86482","0.0-3.0-1.33","","","Update","o","true"
"null","<div style=""font-size:60px;"">+</div>","null","html-keyboard-response","71","87002","0.0-3.0-0.34","","fixation","","",""
"866","Set1/093a.jpg","78","image-keyboard-response","72","87875","0.0-3.0-1.34","","","Repeat","n","true"
"null","<div style=""font-size:60px;"">+</div>","null","html-keyboard-response","73","88412","0.0-3.0-0.35","","fixation","","",""
"895","Set1/064a.jpg","79","image-keyboard-response","74","89314","0.0-3.0-1.35","","","Repeat","o","true"
"null","<div style=""font-size:60px;"">+</div>","null","html-keyboard-response","75","89838","0.0-3.0-0.36","","fixation","","",""
"1066","Set1/005a.jpg","79","image-keyboard-response","76","90907","0.0-3.0-1.36","","","Set_1_Only","o","true"
"null","<div style=""font-size:60px;"">+</div>","null","html-keyboard-response","77","91420","0.0-3.0-0.37","","fixation","","",""
"982","Set1/128a.jpg","79","image-keyboard-response","78","92410","0.0-3.0-1.37","","","Update","o","true"
"null","<div style=""font-size:60px;"">+</div>","null","html-keyboard-response","79","92932","0.0-3.0-0.38","","fixation","","",""
"1231","Set1/044a.jpg","78","image-keyboard-response","80","94170","0.0-3.0-1.38","","","Repeat","n","true"
"null","<div style=""font-size:60px;"">+</div>","null","html-keyboard-response","81","94688","0.0-3.0-0.39","","fixation","","",""
"1054","Set1/037a.jpg","79","image-keyboard-response","82","95748","0.0-3.0-1.39","","","Repeat","o","true"
"null","<div style=""font-size:60px;"">+</div>","null","html-keyboard-response","83","96273","0.0-3.0-0.40","","fixation","","",""
"1207","Set1/088a.jpg","78","image-keyboard-response","84","97487","0.0-3.0-1.40","","","Repeat","n","true"
"null","<div style=""font-size:60px;"">+</div>","null","html-keyboard-response","85","97994","0.0-3.0-0.41","","fixation","","",""
"1084","Set1/106a.jpg","78","image-keyboard-response","86","99083","0.0-3.0-1.41","","","Update","n","true"
"null","<div style=""font-size:60px;"">+</div>","null","html-keyboard-response","87","99615","0.0-3.0-0.42","","fixation","","",""
"1140","Set1/031a.jpg","78","image-keyboard-response","88","100762","0.0-3.0-1.42","","","Set_1_Only","n","true"
"null","<div style=""font-size:60px;"">+</div>","null","html-keyboard-response","89","101282","0.0-3.0-0.43","","fixation","","",""
"1099","Set1/160a.jpg","78","image-keyboard-response","90","102388","0.0-3.0-1.43","","","Update","n","true"
"null","<div style=""font-size:60px;"">+</div>","null","html-keyboard-response","91","102911","0.0-3.0-0.44","","fixation","","",""
"809","Set1/025a.jpg","79","image-keyboard-response","92","103726","0.0-3.0-1.44","","","Set_1_Only","o","true"
"null","<div style=""font-size:60px;"">+</div>","null","html-keyboard-response","93","104260","0.0-3.0-0.45","","fixation","","",""
"1127","Set1/088a.jpg","79","image-keyboard-response","94","105395","0.0-3.0-1.45","","","Repeat","o","true"
"null","<div style=""font-size:60px;"">+</div>","null","html-keyboard-response","95","105920","0.0-3.0-0.46","","fixation","","",""
"1077","Set1/093a.jpg","79","image-keyboard-response","96","107003","0.0-3.0-1.46","","","Repeat","o","true"
"null","<div style=""font-size:60px;"">+</div>","null","html-keyboard-response","97","107531","0.0-3.0-0.47","","fixation","","",""
"1034","Set1/054a.jpg","79","image-keyboard-response","98","108573","0.0-3.0-1.47","","","Repeat","o","true"
"null","<div style=""font-size:60px;"">+</div>","null","html-keyboard-response","99","109082","0.0-3.0-0.48","","fixation","","",""
"1166","Set1/105a.jpg","78","image-keyboard-response","100","110254","0.0-3.0-1.48","","","Update","n","true"
"null","<div style=""font-size:60px;"">+</div>","null","html-keyboard-response","101","110775","0.0-3.0-0.49","","fixation","","",""
"1189","Set1/045a.jpg","78","image-keyboard-response","102","111973","0.0-3.0-1.49","","","Repeat","n","true"
"null","<div style=""font-size:60px;"">+</div>","null","html-keyboard-response","103","112493","0.0-3.0-0.50","","fixation","","",""
"1481","Set1/006a.jpg","79","image-keyboard-response","104","113979","0.0-3.0-1.50","","","Set_1_Only","o","true"
"null","<div style=""font-size:60px;"">+</div>","null","html-keyboard-response","105","114494","0.0-3.0-0.51","","fixation","","",""
"783","Set1/140a.jpg","79","image-keyboard-response","106","115283","0.0-3.0-1.51","","","Update","o","true"
"null","<div style=""font-size:60px;"">+</div>","null","html-keyboard-response","107","115818","0.0-3.0-0.52","","fixation","","",""
"956","Set1/027a.jpg","78","image-keyboard-response","108","116782","0.0-3.0-1.52","","","Set_1_Only","n","true"
"null","<div style=""font-size:60px;"">+</div>","null","html-keyboard-response","109","117316","0.0-3.0-0.53","","fixation","","",""
"968","Set1/049a.jpg","79","image-keyboard-response","110","118291","0.0-3.0-1.53","","","Repeat","o","true"
"null","<div style=""font-size:60px;"">+</div>","null","html-keyboard-response","111","118809","0.0-3.0-0.54","","fixation","","",""
"990","Set1/051a.jpg","79","image-keyboard-response","112","119808","0.0-3.0-1.54","","","Repeat","o","true"
"null","<div style=""font-size:60px;"">+</div>","null","html-keyboard-response","113","120329","0.0-3.0-0.55","","fixation","","",""
"979","Set1/028a.jpg","79","image-keyboard-response","114","121314","0.0-3.0-1.55","","","Set_1_Only","o","true"
"null","<div style=""font-size:60px;"">+</div>","null","html-keyboard-response","115","121832","0.0-3.0-0.56","","fixation","","",""
"958","Set1/047a.jpg","79","image-keyboard-response","116","122795","0.0-3.0-1.56","","","Repeat","o","true"
"null","<div style=""font-size:60px;"">+</div>","null","html-keyboard-response","117","123317","0.0-3.0-0.57","","fixation","","",""
"951","Set1/071a.jpg","79","image-keyboard-response","118","124275","0.0-3.0-1.57","","","Repeat","o","true"
"null","<div style=""font-size:60px;"">+</div>","null","html-keyboard-response","119","124787","0.0-3.0-0.58","","fixation","","",""
"1009","Set1/108a.jpg","79","image-keyboard-response","120","125803","0.0-3.0-1.58","","","Update","o","true"
"null","<div style=""font-size:60px;"">+</div>","null","html-keyboard-response","121","126317","0.0-3.0-0.59","","fixation","","",""
"991","Set1/027a.jpg","79","image-keyboard-response","122","127316","0.0-3.0-1.59","","","Set_1_Only","o","true"
"null","<div style=""font-size:60px;"">+</div>","null","html-keyboard-response","123","127837","0.0-3.0-0.60","","fixation","","",""
"1092","Set1/044a.jpg","79","image-keyboard-response","124","128934","0.0-3.0-1.60","","","Repeat","o","true"
"null","<div style=""font-size:60px;"">+</div>","null","html-keyboard-response","125","129456","0.0-3.0-0.61","","fixation","","",""
"1077","Set1/045a.jpg","79","image-keyboard-response","126","130540","0.0-3.0-1.61","","","Repeat","o","true"
"null","<div style=""font-size:60px;"">+</div>","null","html-keyboard-response","127","131065","0.0-3.0-0.62","","fixation","","",""
"1142","Set1/134a.jpg","78","image-keyboard-response","128","132214","0.0-3.0-1.62","","","Update","n","true"
"null","<div style=""font-size:60px;"">+</div>","null","html-keyboard-response","129","132734","0.0-3.0-0.63","","fixation","","",""
"1040","Set1/158a.jpg","79","image-keyboard-response","130","133781","0.0-3.0-1.63","","","Update","o","true"
"null","<div style=""font-size:60px;"">+</div>","null","html-keyboard-response","131","134304","0.0-3.0-0.64","","fixation","","",""
"859","Set1/106a.jpg","79","image-keyboard-response","132","135171","0.0-3.0-1.64","","","Update","o","true"
"null","<div style=""font-size:60px;"">+</div>","null","html-keyboard-response","133","135699","0.0-3.0-0.65","","fixation","","",""
"1153","Set1/119a.jpg","78","image-keyboard-response","134","136861","0.0-3.0-1.65","","","Update","n","true"
"null","<div style=""font-size:60px;"">+</div>","null","html-keyboard-response","135","137377","0.0-3.0-0.66","","fixation","","",""
"856","Set1/105a.jpg","79","image-keyboard-response","136","138238","0.0-3.0-1.66","","","Update","o","true"
"null","<div style=""font-size:60px;"">+</div>","null","html-keyboard-response","137","138763","0.0-3.0-0.67","","fixation","","",""
"1803","Set1/119a.jpg","79","image-keyboard-response","138","140572","0.0-3.0-1.67","","","Update","o","true"
"null","<div style=""font-size:60px;"">+</div>","null","html-keyboard-response","139","141092","0.0-3.0-0.68","","fixation","","",""
"966","Set1/148a.jpg","79","image-keyboard-response","140","142067","0.0-3.0-1.68","","","Update","o","true"
"null","<div style=""font-size:60px;"">+</div>","null","html-keyboard-response","141","142591","0.0-3.0-0.69","","fixation","","",""
"1063","Set1/031a.jpg","79","image-keyboard-response","142","143660","0.0-3.0-1.69","","","Set_1_Only","o","true"
"null","<div style=""font-size:60px;"">+</div>","null","html-keyboard-response","143","144179","0.0-3.0-0.70","","fixation","","",""
"819","Set1/050a.jpg","79","image-keyboard-response","144","145005","0.0-3.0-1.70","","","Repeat","o","true"
"null","<div style=""font-size:60px;"">+</div>","null","html-keyboard-response","145","145540","0.0-3.0-0.71","","fixation","","",""
"997","Set1/082a.jpg","79","image-keyboard-response","146","146543","0.0-3.0-1.71","","","Repeat","o","true"
"null","<div style=""font-size:60px;"">+</div>","null","html-keyboard-response","147","147062","0.0-3.0-0.72","","fixation","","",""
"1088","Set1/085a.jpg","79","image-keyboard-response","148","148158","0.0-3.0-1.72","","","Repeat","o","true"
"null","<div style=""font-size:60px;"">+</div>","null","html-keyboard-response","149","148688","0.0-3.0-0.73","","fixation","","",""
"1017","Set1/030a.jpg","79","image-keyboard-response","150","149716","0.0-3.0-1.73","","","Set_1_Only","o","true"
"null","<div style=""font-size:60px;"">+</div>","null","html-keyboard-response","151","150244","0.0-3.0-0.74","","fixation","","",""
"962","Set1/160a.jpg","79","image-keyboard-response","152","151213","0.0-3.0-1.74","","","Update","o","true"
"null","<div style=""font-size:60px;"">+</div>","null","html-keyboard-response","153","151729","0.0-3.0-0.75","","fixation","","",""
"1248","Set1/134a.jpg","79","image-keyboard-response","154","152985","0.0-3.0-1.75","","","Update","o","true"
"null","<div style=""font-size:60px;"">+</div>","null","html-keyboard-response","155","153509","0.0-3.0-0.76","","fixation","","",""
"1249","Set1/146a.jpg","79","image-keyboard-response","156","154764","0.0-3.0-1.76","","","Update","o","true"
"null","<div style=""font-size:60px;"">+</div>","null","html-keyboard-response","157","155278","0.0-3.0-0.77","","fixation","","",""
"1083","Set1/107a.jpg","78","image-keyboard-response","158","156368","0.0-3.0-1.77","","","Update","o","false"
"null","<div style=""font-size:60px;"">+</div>","null","html-keyboard-response","159","156891","0.0-3.0-0.78","","fixation","","",""
"1053","Set1/079a.jpg","79","image-keyboard-response","160","157952","0.0-3.0-1.78","","","Repeat","o","true"
"null","<div style=""font-size:60px;"">+</div>","null","html-keyboard-response","161","158486","0.0-3.0-0.79","","fixation","","",""
"826","Set1/121a.jpg","79","image-keyboard-response","162","159318","0.0-3.0-1.79","","","Update","o","true"
"null","<div style=""font-size:60px;"">+</div>","null","html-keyboard-response","163","159837","0.0-3.0-0.80","","fixation","","",""
"1073","Set1/095a.jpg","78","image-keyboard-response","164","160912","0.0-3.0-1.80","","","Repeat","n","true"
"null","<div style=""font-size:60px;"">+</div>","null","html-keyboard-response","165","161436","0.0-3.0-0.81","","fixation","","",""
"1091","Set1/041a.jpg","78","image-keyboard-response","166","162535","0.0-3.0-1.81","","","Repeat","n","true"
"null","<div style=""font-size:60px;"">+</div>","null","html-keyboard-response","167","163075","0.0-3.0-0.82","","fixation","","",""
"1139","Set1/100a.jpg","78","image-keyboard-response","168","164223","0.0-3.0-1.82","","","Update","n","true"
"null","<div style=""font-size:60px;"">+</div>","null","html-keyboard-response","169","164740","0.0-3.0-0.83","","fixation","","",""
"926","Set1/036a.jpg","78","image-keyboard-response","170","165673","0.0-3.0-1.83","","","Repeat","n","true"
"null","<div style=""font-size:60px;"">+</div>","null","html-keyboard-response","171","166215","0.0-3.0-0.84","","fixation","","",""
"1015","Set1/115a.jpg","78","image-keyboard-response","172","167237","0.0-3.0-1.84","","","Update","n","true"
"null","<div style=""font-size:60px;"">+</div>","null","html-keyboard-response","173","167761","0.0-3.0-0.85","","fixation","","",""
"1078","Set1/123a.jpg","78","image-keyboard-response","174","168848","0.0-3.0-1.85","","","Update","n","true"
"null","<div style=""font-size:60px;"">+</div>","null","html-keyboard-response","175","169380","0.0-3.0-0.86","","fixation","","",""
"1043","Set1/015a.jpg","78","image-keyboard-response","176","170430","0.0-3.0-1.86","","","Set_1_Only","n","true"
"null","<div style=""font-size:60px;"">+</div>","null","html-keyboard-response","177","170973","0.0-3.0-0.87","","fixation","","",""
"1005","Set1/096a.jpg","78","image-keyboard-response","178","171985","0.0-3.0-1.87","","","Repeat","n","true"
"null","<div style=""font-size:60px;"">+</div>","null","html-keyboard-response","179","172500","0.0-3.0-0.88","","fixation","","",""
"1103","Set1/110a.jpg","78","image-keyboard-response","180","173609","0.0-3.0-1.88","","","Update","n","true"
"null","<div style=""font-size:60px;"">+</div>","null","html-keyboard-response","181","174128","0.0-3.0-0.89","","fixation","","",""
"1234","Set1/151a.jpg","78","image-keyboard-response","182","175369","0.0-3.0-1.89","","","Update","n","true"
"null","<div style=""font-size:60px;"">+</div>","null","html-keyboard-response","183","175909","0.0-3.0-0.90","","fixation","","",""
"1097","Set1/035a.jpg","78","image-keyboard-response","184","177013","0.0-3.0-1.90","","","Repeat","n","true"
"null","<div style=""font-size:60px;"">+</div>","null","html-keyboard-response","185","177528","0.0-3.0-0.91","","fixation","","",""
"1039","Set1/026a.jpg","78","image-keyboard-response","186","178575","0.0-3.0-1.91","","","Set_1_Only","n","true"
"null","<div style=""font-size:60px;"">+</div>","null","html-keyboard-response","187","179101","0.0-3.0-0.92","","fixation","","",""
"959","Set1/067a.jpg","78","image-keyboard-response","188","180069","0.0-3.0-1.92","","","Repeat","n","true"
"null","<div style=""font-size:60px;"">+</div>","null","html-keyboard-response","189","180589","0.0-3.0-0.93","","fixation","","",""
"1004","Set1/076a.jpg","78","image-keyboard-response","190","181601","0.0-3.0-1.93","","","Repeat","n","true"
"null","<div style=""font-size:60px;"">+</div>","null","html-keyboard-response","191","182124","0.0-3.0-0.94","","fixation","","",""
"1114","Set1/125a.jpg","78","image-keyboard-response","192","183247","0.0-3.0-1.94","","","Update","n","true"
"null","<div style=""font-size:60px;"">+</div>","null","html-keyboard-response","193","183767","0.0-3.0-0.95","","fixation","","",""
"842","Set1/123a.jpg","79","image-keyboard-response","194","184617","0.0-3.0-1.95","","","Update","o","true"
"null","<div style=""font-size:60px;"">+</div>","null","html-keyboard-response","195","185134","0.0-3.0-0.96","","fixation","","",""
"907","Set1/076a.jpg","79","image-keyboard-response","196","186047","0.0-3.0-1.96","","","Repeat","o","true"
"null","<div style=""font-size:60px;"">+</div>","null","html-keyboard-response","197","186573","0.0-3.0-0.97","","fixation","","",""
"1149","Set1/151a.jpg","79","image-keyboard-response","198","187727","0.0-3.0-1.97","","","Update","o","true"
"null","<div style=""font-size:60px;"">+</div>","null","html-keyboard-response","199","188259","0.0-3.0-0.98","","fixation","","",""
"819","Set1/115a.jpg","79","image-keyboard-response","200","189089","0.0-3.0-1.98","","","Update","o","true"
"null","<div style=""font-size:60px;"">+</div>","null","html-keyboard-response","201","189616","0.0-3.0-0.99","","fixation","","",""
"992","Set1/081a.jpg","78","image-keyboard-response","202","190615","0.0-3.0-1.99","","","Repeat","n","true"
"null","<div style=""font-size:60px;"">+</div>","null","html-keyboard-response","203","191133","0.0-3.0-0.100","","fixation","","",""
"1034","Set1/015a.jpg","79","image-keyboard-response","204","192175","0.0-3.0-1.100","","","Set_1_Only","o","true"
"null","<div style=""font-size:60px;"">+</div>","null","html-keyboard-response","205","192708","0.0-3.0-0.101","","fixation","","",""
"782","Set1/035a.jpg","79","image-keyboard-response","206","193497","0.0-3.0-1.101","","","Repeat","o","true"
"null","<div style=""font-size:60px;"">+</div>","null","html-keyboard-response","207","194022","0.0-3.0-0.102","","fixation","","",""
"1001","Set1/014a.jpg","78","image-keyboard-response","208","195032","0.0-3.0-1.102","","","Set_1_Only","n","true"
"null","<div style=""font-size:60px;"">+</div>","null","html-keyboard-response","209","195560","0.0-3.0-0.103","","fixation","","",""
"873","Set1/152a.jpg","78","image-keyboard-response","210","196440","0.0-3.0-1.103","","","Update","n","true"
"null","<div style=""font-size:60px;"">+</div>","null","html-keyboard-response","211","196968","0.0-3.0-0.104","","fixation","","",""
"1055","Set1/114a.jpg","78","image-keyboard-response","212","198032","0.0-3.0-1.104","","","Update","n","true"
"null","<div style=""font-size:60px;"">+</div>","null","html-keyboard-response","213","198556","0.0-3.0-0.105","","fixation","","",""
"1299","Set1/019a.jpg","78","image-keyboard-response","214","199863","0.0-3.0-1.105","","","Set_1_Only","n","true"
"null","<div style=""font-size:60px;"">+</div>","null","html-keyboard-response","215","200389","0.0-3.0-0.106","","fixation","","",""
"1064","Set1/013a.jpg","78","image-keyboard-response","216","201461","0.0-3.0-1.106","","","Set_1_Only","n","true"
"null","<div style=""font-size:60px;"">+</div>","null","html-keyboard-response","217","201981","0.0-3.0-0.107","","fixation","","",""
"1097","Set1/053a.jpg","78","image-keyboard-response","218","203086","0.0-3.0-1.107","","","Repeat","n","true"
"null","<div style=""font-size:60px;"">+</div>","null","html-keyboard-response","219","203615","0.0-3.0-0.108","","fixation","","",""
"916","Set1/026a.jpg","79","image-keyboard-response","220","204537","0.0-3.0-1.108","","","Set_1_Only","o","true"
"null","<div style=""font-size:60px;"">+</div>","null","html-keyboard-response","221","205060","0.0-3.0-0.109","","fixation","","",""
"1052","Set1/138a.jpg","78","image-keyboard-response","222","206121","0.0-3.0-1.109","","","Update","n","true"
"null","<div style=""font-size:60px;"">+</div>","null","html-keyboard-response","223","206634","0.0-3.0-0.110","","fixation","","",""
"941","Set1/010a.jpg","78","image-keyboard-response","224","207584","0.0-3.0-1.110","","","Set_1_Only","n","true"
"null","<div style=""font-size:60px;"">+</div>","null","html-keyboard-response","225","208108","0.0-3.0-0.111","","fixation","","",""
"1316","Set1/008a.jpg","78","image-keyboard-response","226","209432","0.0-3.0-1.111","","","Set_1_Only","n","true"
"null","<div style=""font-size:60px;"">+</div>","null","html-keyboard-response","227","209961","0.0-3.0-0.112","","fixation","","",""
"935","Set1/036a.jpg","79","image-keyboard-response","228","210903","0.0-3.0-1.112","","","Repeat","o","true"
"null","<div style=""font-size:60px;"">+</div>","null","html-keyboard-response","229","211419","0.0-3.0-0.113","","fixation","","",""
"847","Set1/081a.jpg","79","image-keyboard-response","230","212275","0.0-3.0-1.113","","","Repeat","o","true"
"null","<div style=""font-size:60px;"">+</div>","null","html-keyboard-response","231","212809","0.0-3.0-0.114","","fixation","","",""
"898","Set1/114a.jpg","79","image-keyboard-response","232","213714","0.0-3.0-1.114","","","Update","o","true"
"null","<div style=""font-size:60px;"">+</div>","null","html-keyboard-response","233","214250","0.0-3.0-0.115","","fixation","","",""
"943","Set1/156a.jpg","78","image-keyboard-response","234","215202","0.0-3.0-1.115","","","Update","n","true"
"null","<div style=""font-size:60px;"">+</div>","null","html-keyboard-response","235","215717","0.0-3.0-0.116","","fixation","","",""
"866","Set1/056a.jpg","78","image-keyboard-response","236","216589","0.0-3.0-1.116","","","Repeat","n","true"
"null","<div style=""font-size:60px;"">+</div>","null","html-keyboard-response","237","217111","0.0-3.0-0.117","","fixation","","",""
"1182","Set1/150a.jpg","78","image-keyboard-response","238","218300","0.0-3.0-1.117","","","Update","n","true"
"null","<div style=""font-size:60px;"">+</div>","null","html-keyboard-response","239","218821","0.0-3.0-0.118","","fixation","","",""
"922","Set1/152a.jpg","79","image-keyboard-response","240","219751","0.0-3.0-1.118","","","Update","o","true"
"null","<div style=""font-size:60px;"">+</div>","null","html-keyboard-response","241","220275","0.0-3.0-0.119","","fixation","","",""
"953","Set1/157a.jpg","78","image-keyboard-response","242","221235","0.0-3.0-1.119","","","Update","n","true"
"null","<div style=""font-size:60px;"">+</div>","null","html-keyboard-response","243","221757","0.0-3.0-0.120","","fixation","","",""
"939","Set1/059a.jpg","78","image-keyboard-response","244","222704","0.0-3.0-1.120","","","Repeat","n","true"
"null","<div style=""font-size:60px;"">+</div>","null","html-keyboard-response","245","223232","0.0-3.0-0.121","","fixation","","",""
"1066","Set1/055a.jpg","78","image-keyboard-response","246","224308","0.0-3.0-1.121","","","Repeat","n","true"
"null","<div style=""font-size:60px;"">+</div>","null","html-keyboard-response","247","224840","0.0-3.0-0.122","","fixation","","",""
"1026","Set1/019a.jpg","79","image-keyboard-response","248","225874","0.0-3.0-1.122","","","Set_1_Only","o","true"
"null","<div style=""font-size:60px;"">+</div>","null","html-keyboard-response","249","226395","0.0-3.0-0.123","","fixation","","",""
"922","Set1/075a.jpg","78","image-keyboard-response","250","227328","0.0-3.0-1.123","","","Repeat","n","true"
"null","<div style=""font-size:60px;"">+</div>","null","html-keyboard-response","251","227840","0.0-3.0-0.124","","fixation","","",""
"1086","Set1/048a.jpg","78","image-keyboard-response","252","228930","0.0-3.0-1.124","","","Repeat","n","true"
"null","<div style=""font-size:60px;"">+</div>","null","html-keyboard-response","253","229447","0.0-3.0-0.125","","fixation","","",""
"828","Set1/052a.jpg","78","image-keyboard-response","254","230283","0.0-3.0-1.125","","","Repeat","n","true"
"null","<div style=""font-size:60px;"">+</div>","null","html-keyboard-response","255","230806","0.0-3.0-0.126","","fixation","","",""
"1099","Set1/154a.jpg","78","image-keyboard-response","256","231913","0.0-3.0-1.126","","","Update","n","true"
"null","<div style=""font-size:60px;"">+</div>","null","html-keyboard-response","257","232447","0.0-3.0-0.127","","fixation","","",""
"764","Set1/041a.jpg","79","image-keyboard-response","258","233220","0.0-3.0-1.127","","","Repeat","o","true"
"null","<div style=""font-size:60px;"">+</div>","null","html-keyboard-response","259","233758","0.0-3.0-0.128","","fixation","","",""
"707","Set1/010a.jpg","79","image-keyboard-response","260","234473","0.0-3.0-1.128","","","Set_1_Only","o","true"
"null","<div style=""font-size:60px;"">+</div>","null","html-keyboard-response","261","234992","0.0-3.0-0.129","","fixation","","",""
"904","Set1/008a.jpg","79","image-keyboard-response","262","235904","0.0-3.0-1.129","","","Set_1_Only","o","true"
"null","<div style=""font-size:60px;"">+</div>","null","html-keyboard-response","263","236420","0.0-3.0-0.130","","fixation","","",""
"920","Set1/154a.jpg","79","image-keyboard-response","264","237348","0.0-3.0-1.130","","","Update","o","true"
"null","<div style=""font-size:60px;"">+</div>","null","html-keyboard-response","265","237868","0.0-3.0-0.131","","fixation","","",""
"860","Set1/048a.jpg","79","image-keyboard-response","266","238737","0.0-3.0-1.131","","","Repeat","o","true"
"null","<div style=""font-size:60px;"">+</div>","null","html-keyboard-response","267","239252","0.0-3.0-0.132","","fixation","","",""
"953","Set1/053a.jpg","79","image-keyboard-response","268","240208","0.0-3.0-1.132","","","Repeat","o","true"
"null","<div style=""font-size:60px;"">+</div>","null","html-keyboard-response","269","240730","0.0-3.0-0.133","","fixation","","",""
"816","Set1/138a.jpg","79","image-keyboard-response","270","241554","0.0-3.0-1.133","","","Update","o","true"
"null","<div style=""font-size:60px;"">+</div>","null","html-keyboard-response","271","242064","0.0-3.0-0.134","","fixation","","",""
"946","Set1/014a.jpg","79","image-keyboard-response","272","243017","0.0-3.0-1.134","","","Set_1_Only","o","true"
"null","<div style=""font-size:60px;"">+</div>","null","html-keyboard-response","273","243542","0.0-3.0-0.135","","fixation","","",""
"870","Set1/075a.jpg","79","image-keyboard-response","274","244420","0.0-3.0-1.135","","","Repeat","o","true"
"null","<div style=""font-size:60px;"">+</div>","null","html-keyboard-response","275","244950","0.0-3.0-0.136","","fixation","","",""
"995","Set1/111a.jpg","78","image-keyboard-response","276","245954","0.0-3.0-1.136","","","Update","n","true"
"null","<div style=""font-size:60px;"">+</div>","null","html-keyboard-response","277","246471","0.0-3.0-0.137","","fixation","","",""
"910","Set1/056a.jpg","79","image-keyboard-response","278","247390","0.0-3.0-1.137","","","Repeat","o","true"
"null","<div style=""font-size:60px;"">+</div>","null","html-keyboard-response","279","247912","0.0-3.0-0.138","","fixation","","",""
"1058","Set1/003a.jpg","78","image-keyboard-response","280","248977","0.0-3.0-1.138","","","Set_1_Only","n","true"
"null","<div style=""font-size:60px;"">+</div>","null","html-keyboard-response","281","249498","0.0-3.0-0.139","","fixation","","",""
"880","Set1/125a.jpg","79","image-keyboard-response","282","250385","0.0-3.0-1.139","","","Update","o","true"
"null","<div style=""font-size:60px;"">+</div>","null","html-keyboard-response","283","250917","0.0-3.0-0.140","","fixation","","",""
"1027","Set1/072a.jpg","78","image-keyboard-response","284","251953","0.0-3.0-1.140","","","Repeat","n","true"
"null","<div style=""font-size:60px;"">+</div>","null","html-keyboard-response","285","252481","0.0-3.0-0.141","","fixation","","",""
"945","Set1/084a.jpg","78","image-keyboard-response","286","253436","0.0-3.0-1.141","","","Repeat","n","true"
"null","<div style=""font-size:60px;"">+</div>","null","html-keyboard-response","287","253953","0.0-3.0-0.142","","fixation","","",""
"788","Set1/156a.jpg","79","image-keyboard-response","288","254748","0.0-3.0-1.142","","","Update","o","true"
"null","<div style=""font-size:60px;"">+</div>","null","html-keyboard-response","289","255267","0.0-3.0-0.143","","fixation","","",""
"1271","Set1/003a.jpg","79","image-keyboard-response","290","256548","0.0-3.0-1.143","","","Set_1_Only","o","true"
"null","<div style=""font-size:60px;"">+</div>","null","html-keyboard-response","291","257083","0.0-3.0-0.144","","fixation","","",""
"985","Set1/059a.jpg","79","image-keyboard-response","292","258076","0.0-3.0-1.144","","","Repeat","o","true"
"null","<div style=""font-size:60px;"">+</div>","null","html-keyboard-response","293","258605","0.0-3.0-0.145","","fixation","","",""
"976","Set1/110a.jpg","79","image-keyboard-response","294","259588","0.0-3.0-1.145","","","Update","o","true"
"null","<div style=""font-size:60px;"">+</div>","null","html-keyboard-response","295","260117","0.0-3.0-0.146","","fixation","","",""
"941","Set1/084a.jpg","78","image-keyboard-response","296","261066","0.0-3.0-1.146","","","Repeat","o","false"
"null","<div style=""font-size:60px;"">+</div>","null","html-keyboard-response","297","261594","0.0-3.0-0.147","","fixation","","",""
"1149","Set1/072a.jpg","78","image-keyboard-response","298","262749","0.0-3.0-1.147","","","Repeat","o","false"
"null","<div style=""font-size:60px;"">+</div>","null","html-keyboard-response","299","263272","0.0-3.0-0.148","","fixation","","",""
"1042","Set1/127a.jpg","78","image-keyboard-response","300","264318","0.0-3.0-1.148","","","Update","n","true"
"null","<div style=""font-size:60px;"">+</div>","null","html-keyboard-response","301","264826","0.0-3.0-0.149","","fixation","","",""
"895","Set1/095a.jpg","78","image-keyboard-response","302","265725","0.0-3.0-1.149","","","Repeat","o","false"
"null","<div style=""font-size:60px;"">+</div>","null","html-keyboard-response","303","266260","0.0-3.0-0.150","","fixation","","",""
"829","Set1/013a.jpg","79","image-keyboard-response","304","267093","0.0-3.0-1.150","","","Set_1_Only","o","true"
"null","<div style=""font-size:60px;"">+</div>","null","html-keyboard-response","305","267622","0.0-3.0-0.151","","fixation","","",""
"801","Set1/067a.jpg","79","image-keyboard-response","306","268426","0.0-3.0-1.151","","","Repeat","o","true"
"null","<div style=""font-size:60px;"">+</div>","null","html-keyboard-response","307","268966","0.0-3.0-0.152","","fixation","","",""
"741","Set1/157a.jpg","79","image-keyboard-response","308","269715","0.0-3.0-1.152","","","Update","o","true"
"null","<div style=""font-size:60px;"">+</div>","null","html-keyboard-response","309","270235","0.0-3.0-0.153","","fixation","","",""
"1326","Set1/127a.jpg","78","image-keyboard-response","310","271566","0.0-3.0-1.153","","","Update","o","false"
"null","<div style=""font-size:60px;"">+</div>","null","html-keyboard-response","311","272095","0.0-3.0-0.154","","fixation","","",""
"1059","Set1/052a.jpg","79","image-keyboard-response","312","273169","0.0-3.0-1.154","","","Repeat","o","true"
"null","<div style=""font-size:60px;"">+</div>","null","html-keyboard-response","313","273689","0.0-3.0-0.155","","fixation","","",""
"846","Set1/055a.jpg","79","image-keyboard-response","314","274542","0.0-3.0-1.155","","","Repeat","o","true"
"null","<div style=""font-size:60px;"">+</div>","null","html-keyboard-response","315","275066","0.0-3.0-0.156","","fixation","","",""
"951","Set1/111a.jpg","79","image-keyboard-response","316","276025","0.0-3.0-1.156","","","Update","o","true"
"null","<div style=""font-size:60px;"">+</div>","null","html-keyboard-response","317","276544","0.0-3.0-0.157","","fixation","","",""
"965","Set1/150a.jpg","79","image-keyboard-response","318","277519","0.0-3.0-1.157","","","Update","o","true"
"null","<div style=""font-size:60px;"">+</div>","null","html-keyboard-response","319","278039","0.0-3.0-0.158","","fixation","","",""
"894","Set1/100a.jpg","79","image-keyboard-response","320","278940","0.0-3.0-1.158","","","Update","o","true"
"null","<div style=""font-size:60px;"">+</div>","null","html-keyboard-response","321","279462","0.0-3.0-0.159","","fixation","","",""
"1079","Set1/096a.jpg","79","image-keyboard-response","322","280547","0.0-3.0-1.159","","","Repeat","o","true"
"null","<div style=""font-size:60px;"">+</div>","null","html-keyboard-response","323","281077","0.0-3.0-0.160","","fixation","","",""
"973","Set1/159a.jpg","78","image-keyboard-response","324","282059","0.0-3.0-1.160","","","Update","n","true"
"null","<div style=""font-size:60px;"">+</div>","null","html-keyboard-response","325","282586","0.0-3.0-0.161","","fixation","","",""
"969","Set1/074a.jpg","78","image-keyboard-response","326","283565","0.0-3.0-1.161","","","Repeat","n","true"
"null","<div style=""font-size:60px;"">+</div>","null","html-keyboard-response","327","284099","0.0-3.0-0.162","","fixation","","",""
"1017","Set1/060a.jpg","78","image-keyboard-response","328","285125","0.0-3.0-1.162","","","Repeat","n","true"
"null","<div style=""font-size:60px;"">+</div>","null","html-keyboard-response","329","285639","0.0-3.0-0.163","","fixation","","",""
"1043","Set1/062a.jpg","78","image-keyboard-response","330","286710","0.0-3.0-1.163","","","Repeat","n","true"
"null","<div style=""font-size:60px;"">+</div>","null","html-keyboard-response","331","287246","0.0-3.0-0.164","","fixation","","",""
"943","Set1/155a.jpg","78","image-keyboard-response","332","288199","0.0-3.0-1.164","","","Update","n","true"
"null","<div style=""font-size:60px;"">+</div>","null","html-keyboard-response","333","288721","0.0-3.0-0.165","","fixation","","",""
"952","Set1/117a.jpg","78","image-keyboard-response","334","289678","0.0-3.0-1.165","","","Update","n","true"
"null","<div style=""font-size:60px;"">+</div>","null","html-keyboard-response","335","290202","0.0-3.0-0.166","","fixation","","",""
"865","Set1/004a.jpg","78","image-keyboard-response","336","291076","0.0-3.0-1.166","","","Set_1_Only","n","true"
"null","<div style=""font-size:60px;"">+</div>","null","html-keyboard-response","337","291602","0.0-3.0-0.167","","fixation","","",""
"889","Set1/097a.jpg","78","image-keyboard-response","338","292500","0.0-3.0-1.167","","","Update","n","true"
"null","<div style=""font-size:60px;"">+</div>","null","html-keyboard-response","339","293020","0.0-3.0-0.168","","fixation","","",""
"1013","Set1/130a.jpg","78","image-keyboard-response","340","294042","0.0-3.0-1.168","","","Update","n","true"
"null","<div style=""font-size:60px;"">+</div>","null","html-keyboard-response","341","294560","0.0-3.0-0.169","","fixation","","",""
"947","Set1/068a.jpg","78","image-keyboard-response","342","295516","0.0-3.0-1.169","","","Repeat","n","true"
"null","<div style=""font-size:60px;"">+</div>","null","html-keyboard-response","343","296042","0.0-3.0-0.170","","fixation","","",""
"803","Set1/137a.jpg","78","image-keyboard-response","344","296855","0.0-3.0-1.170","","","Update","n","true"
"null","<div style=""font-size:60px;"">+</div>","null","html-keyboard-response","345","297373","0.0-3.0-0.171","","fixation","","",""
"936","Set1/097a.jpg","79","image-keyboard-response","346","298317","0.0-3.0-1.171","","","Update","o","true"
"null","<div style=""font-size:60px;"">+</div>","null","html-keyboard-response","347","298848","0.0-3.0-0.172","","fixation","","",""
"931","Set1/147a.jpg","78","image-keyboard-response","348","299787","0.0-3.0-1.172","","","Update","n","true"
"null","<div style=""font-size:60px;"">+</div>","null","html-keyboard-response","349","300315","0.0-3.0-0.173","","fixation","","",""
"945","Set1/155a.jpg","79","image-keyboard-response","350","301269","0.0-3.0-1.173","","","Update","o","true"
"null","<div style=""font-size:60px;"">+</div>","null","html-keyboard-response","351","301805","0.0-3.0-0.174","","fixation","","",""
"1003","Set1/002a.jpg","78","image-keyboard-response","352","302820","0.0-3.0-1.174","","","Set_1_Only","n","true"
"null","<div style=""font-size:60px;"">+</div>","null","html-keyboard-response","353","303342","0.0-3.0-0.175","","fixation","","",""
"967","Set1/033a.jpg","78","image-keyboard-response","354","304319","0.0-3.0-1.175","","","Repeat","n","true"
"null","<div style=""font-size:60px;"">+</div>","null","html-keyboard-response","355","304844","0.0-3.0-0.176","","fixation","","",""
"992","Set1/102a.jpg","78","image-keyboard-response","356","305846","0.0-3.0-1.176","","","Update","n","true"
"null","<div style=""font-size:60px;"">+</div>","null","html-keyboard-response","357","306359","0.0-3.0-0.177","","fixation","","",""
"922","Set1/057a.jpg","78","image-keyboard-response","358","307288","0.0-3.0-1.177","","","Repeat","n","true"
"null","<div style=""font-size:60px;"">+</div>","null","html-keyboard-response","359","307811","0.0-3.0-0.178","","fixation","","",""
"970","Set1/147a.jpg","79","image-keyboard-response","360","308789","0.0-3.0-1.178","","","Update","o","true"
"null","<div style=""font-size:60px;"">+</div>","null","html-keyboard-response","361","309308","0.0-3.0-0.179","","fixation","","",""
"876","Set1/057a.jpg","79","image-keyboard-response","362","310193","0.0-3.0-1.179","","","Repeat","o","true"
"null","<div style=""font-size:60px;"">+</div>","null","html-keyboard-response","363","310712","0.0-3.0-0.180","","fixation","","",""
"860","Set1/131a.jpg","78","image-keyboard-response","364","311583","0.0-3.0-1.180","","","Update","n","true"
"null","<div style=""font-size:60px;"">+</div>","null","html-keyboard-response","365","312104","0.0-3.0-0.181","","fixation","","",""
"894","Set1/032a.jpg","78","image-keyboard-response","366","313003","0.0-3.0-1.181","","","Set_1_Only","n","true"
"null","<div style=""font-size:60px;"">+</div>","null","html-keyboard-response","367","313518","0.0-3.0-0.182","","fixation","","",""
"1073","Set1/065a.jpg","78","image-keyboard-response","368","314598","0.0-3.0-1.182","","","Repeat","n","true"
"null","<div style=""font-size:60px;"">+</div>","null","html-keyboard-response","369","315133","0.0-3.0-0.183","","fixation","","",""
"912","Set1/149a.jpg","78","image-keyboard-response","370","316055","0.0-3.0-1.183","","","Update","n","true"
"null","<div style=""font-size:60px;"">+</div>","null","html-keyboard-response","371","316585","0.0-3.0-0.184","","fixation","","",""
"909","Set1/065a.jpg","79","image-keyboard-response","372","317503","0.0-3.0-1.184","","","Repeat","o","true"
"null","<div style=""font-size:60px;"">+</div>","null","html-keyboard-response","373","318023","0.0-3.0-0.185","","fixation","","",""
"1230","Set1/089a.jpg","78","image-keyboard-response","374","319263","0.0-3.0-1.185","","","Repeat","n","true"
"null","<div style=""font-size:60px;"">+</div>","null","html-keyboard-response","375","319778","0.0-3.0-0.186","","fixation","","",""
"1403","Set1/144a.jpg","78","image-keyboard-response","376","321190","0.0-3.0-1.186","","","Update","n","true"
"null","<div style=""font-size:60px;"">+</div>","null","html-keyboard-response","377","321712","0.0-3.0-0.187","","fixation","","",""
"1217","Set1/069a.jpg","78","image-keyboard-response","378","322938","0.0-3.0-1.187","","","Repeat","n","true"
"null","<div style=""font-size:60px;"">+</div>","null","html-keyboard-response","379","323458","0.0-3.0-0.188","","fixation","","",""
"1185","Set1/129a.jpg","78","image-keyboard-response","380","324653","0.0-3.0-1.188","","","Update","n","true"
"null","<div style=""font-size:60px;"">+</div>","null","html-keyboard-response","381","325181","0.0-3.0-0.189","","fixation","","",""
"879","Set1/032a.jpg","79","image-keyboard-response","382","326070","0.0-3.0-1.189","","","Set_1_Only","o","true"
"null","<div style=""font-size:60px;"">+</div>","null","html-keyboard-response","383","326599","0.0-3.0-0.190","","fixation","","",""
"1109","Set1/024a.jpg","78","image-keyboard-response","384","327717","0.0-3.0-1.190","","","Set_1_Only","n","true"
"null","<div style=""font-size:60px;"">+</div>","null","html-keyboard-response","385","328237","0.0-3.0-0.191","","fixation","","",""
"848","Set1/078a.jpg","78","image-keyboard-response","386","329096","0.0-3.0-1.191","","","Repeat","n","true"
"null","<div style=""font-size:60px;"">+</div>","null","html-keyboard-response","387","329619","0.0-3.0-0.192","","fixation","","",""
"903","Set1/103a.jpg","78","image-keyboard-response","388","330532","0.0-3.0-1.192","","","Update","n","true"
"null","<div style=""font-size:60px;"">+</div>","null","html-keyboard-response","389","331058","0.0-3.0-0.193","","fixation","","",""
"850","Set1/130a.jpg","79","image-keyboard-response","390","331917","0.0-3.0-1.193","","","Update","o","true"
"null","<div style=""font-size:60px;"">+</div>","null","html-keyboard-response","391","332456","0.0-3.0-0.194","","fixation","","",""
"880","Set1/022a.jpg","78","image-keyboard-response","392","333343","0.0-3.0-1.194","","","Set_1_Only","n","true"
"null","<div style=""font-size:60px;"">+</div>","null","html-keyboard-response","393","333861","0.0-3.0-0.195","","fixation","","",""
"1017","Set1/124a.jpg","78","image-keyboard-response","394","334887","0.0-3.0-1.195","","","Update","n","true"
"null","<div style=""font-size:60px;"">+</div>","null","html-keyboard-response","395","335408","0.0-3.0-0.196","","fixation","","",""
"827","Set1/068a.jpg","79","image-keyboard-response","396","336243","0.0-3.0-1.196","","","Repeat","o","true"
"null","<div style=""font-size:60px;"">+</div>","null","html-keyboard-response","397","336771","0.0-3.0-0.197","","fixation","","",""
"881","Set1/078a.jpg","79","image-keyboard-response","398","337662","0.0-3.0-1.197","","","Repeat","o","true"
"null","<div style=""font-size:60px;"">+</div>","null","html-keyboard-response","399","338190","0.0-3.0-0.198","","fixation","","",""
"885","Set1/137a.jpg","79","image-keyboard-response","400","339088","0.0-3.0-1.198","","","Update","o","true"
"null","<div style=""font-size:60px;"">+</div>","null","html-keyboard-response","401","339605","0.0-3.0-0.199","","fixation","","",""
"970","Set1/118a.jpg","78","image-keyboard-response","402","340583","0.0-3.0-1.199","","","Update","n","true"
"null","<div style=""font-size:60px;"">+</div>","null","html-keyboard-response","403","341109","0.0-3.0-0.200","","fixation","","",""
"882","Set1/149a.jpg","79","image-keyboard-response","404","342000","0.0-3.0-1.200","","","Update","o","true"
"null","<div style=""font-size:60px;"">+</div>","null","html-keyboard-response","405","342532","0.0-3.0-0.201","","fixation","","",""
"908","Set1/002a.jpg","79","image-keyboard-response","406","343448","0.0-3.0-1.201","","","Set_1_Only","o","true"
"null","<div style=""font-size:60px;"">+</div>","null","html-keyboard-response","407","343981","0.0-3.0-0.202","","fixation","","",""
"842","Set1/103a.jpg","79","image-keyboard-response","408","344832","0.0-3.0-1.202","","","Update","o","true"
"null","<div style=""font-size:60px;"">+</div>","null","html-keyboard-response","409","345363","0.0-3.0-0.203","","fixation","","",""
"875","Set1/012a.jpg","78","image-keyboard-response","410","346248","0.0-3.0-1.203","","","Set_1_Only","n","true"
"null","<div style=""font-size:60px;"">+</div>","null","html-keyboard-response","411","346770","0.0-3.0-0.204","","fixation","","",""
"1157","Set1/104a.jpg","78","image-keyboard-response","412","347937","0.0-3.0-1.204","","","Update","n","true"
"null","<div style=""font-size:60px;"">+</div>","null","html-keyboard-response","413","348448","0.0-3.0-0.205","","fixation","","",""
"863","Set1/080a.jpg","78","image-keyboard-response","414","349321","0.0-3.0-1.205","","","Repeat","n","true"
"null","<div style=""font-size:60px;"">+</div>","null","html-keyboard-response","415","349859","0.0-3.0-0.206","","fixation","","",""
"924","Set1/040a.jpg","78","image-keyboard-response","416","350795","0.0-3.0-1.206","","","Repeat","n","true"
"null","<div style=""font-size:60px;"">+</div>","null","html-keyboard-response","417","351314","0.0-3.0-0.207","","fixation","","",""
"809","Set1/145a.jpg","78","image-keyboard-response","418","352129","0.0-3.0-1.207","","","Update","n","true"
"null","<div style=""font-size:60px;"">+</div>","null","html-keyboard-response","419","352652","0.0-3.0-0.208","","fixation","","",""
"915","Set1/004a.jpg","79","image-keyboard-response","420","353577","0.0-3.0-1.208","","","Set_1_Only","o","true"
"null","<div style=""font-size:60px;"">+</div>","null","html-keyboard-response","421","354118","0.0-3.0-0.209","","fixation","","",""
"1010","Set1/073a.jpg","78","image-keyboard-response","422","355136","0.0-3.0-1.209","","","Repeat","n","true"
"null","<div style=""font-size:60px;"">+</div>","null","html-keyboard-response","423","355657","0.0-3.0-0.210","","fixation","","",""
"855","Set1/144a.jpg","79","image-keyboard-response","424","356522","0.0-3.0-1.210","","","Update","o","true"
"null","<div style=""font-size:60px;"">+</div>","null","html-keyboard-response","425","357039","0.0-3.0-0.211","","fixation","","",""
"920","Set1/145a.jpg","79","image-keyboard-response","426","357970","0.0-3.0-1.211","","","Update","o","true"
"null","<div style=""font-size:60px;"">+</div>","null","html-keyboard-response","427","358491","0.0-3.0-0.212","","fixation","","",""
"940","Set1/124a.jpg","79","image-keyboard-response","428","359440","0.0-3.0-1.212","","","Update","o","true"
"null","<div style=""font-size:60px;"">+</div>","null","html-keyboard-response","429","359964","0.0-3.0-0.213","","fixation","","",""
"1031","Set1/040a.jpg","79","image-keyboard-response","430","361005","0.0-3.0-1.213","","","Repeat","o","true"
"null","<div style=""font-size:60px;"">+</div>","null","html-keyboard-response","431","361536","0.0-3.0-0.214","","fixation","","",""
"950","Set1/069a.jpg","79","image-keyboard-response","432","362504","0.0-3.0-1.214","","","Repeat","o","true"
"null","<div style=""font-size:60px;"">+</div>","null","html-keyboard-response","433","363029","0.0-3.0-0.215","","fixation","","",""
"975","Set1/143a.jpg","78","image-keyboard-response","434","364013","0.0-3.0-1.215","","","Update","n","true"
"null","<div style=""font-size:60px;"">+</div>","null","html-keyboard-response","435","364537","0.0-3.0-0.216","","fixation","","",""
"781","Set1/024a.jpg","79","image-keyboard-response","436","365321","0.0-3.0-1.216","","","Set_1_Only","o","true"
"null","<div style=""font-size:60px;"">+</div>","null","html-keyboard-response","437","365844","0.0-3.0-0.217","","fixation","","",""
"786","Set1/131a.jpg","79","image-keyboard-response","438","366638","0.0-3.0-1.217","","","Update","o","true"
"null","<div style=""font-size:60px;"">+</div>","null","html-keyboard-response","439","367154","0.0-3.0-0.218","","fixation","","",""
"920","Set1/094a.jpg","78","image-keyboard-response","440","368086","0.0-3.0-1.218","","","Repeat","n","true"
"null","<div style=""font-size:60px;"">+</div>","null","html-keyboard-response","441","368602","0.0-3.0-0.219","","fixation","","",""
"1142","Set1/104a.jpg","79","image-keyboard-response","442","369754","0.0-3.0-1.219","","","Update","o","true"
"null","<div style=""font-size:60px;"">+</div>","null","html-keyboard-response","443","370266","0.0-3.0-0.220","","fixation","","",""
"993","Set1/080a.jpg","79","image-keyboard-response","444","371269","0.0-3.0-1.220","","","Repeat","o","true"
"null","<div style=""font-size:60px;"">+</div>","null","html-keyboard-response","445","371807","0.0-3.0-0.221","","fixation","","",""
"878","Set1/060a.jpg","79","image-keyboard-response","446","372691","0.0-3.0-1.221","","","Repeat","o","true"
"null","<div style=""font-size:60px;"">+</div>","null","html-keyboard-response","447","373226","0.0-3.0-0.222","","fixation","","",""
"1175","Set1/129a.jpg","79","image-keyboard-response","448","374410","0.0-3.0-1.222","","","Update","o","true"
"null","<div style=""font-size:60px;"">+</div>","null","html-keyboard-response","449","374937","0.0-3.0-0.223","","fixation","","",""
"1026","Set1/089a.jpg","79","image-keyboard-response","450","375973","0.0-3.0-1.223","","","Repeat","o","true"
"null","<div style=""font-size:60px;"">+</div>","null","html-keyboard-response","451","376498","0.0-3.0-0.224","","fixation","","",""
"927","Set1/159a.jpg","79","image-keyboard-response","452","377435","0.0-3.0-1.224","","","Update","o","true"
"null","<div style=""font-size:60px;"">+</div>","null","html-keyboard-response","453","377964","0.0-3.0-0.225","","fixation","","",""
"977","Set1/135a.jpg","78","image-keyboard-response","454","378952","0.0-3.0-1.225","","","Update","n","true"
"null","<div style=""font-size:60px;"">+</div>","null","html-keyboard-response","455","379500","0.0-3.0-0.226","","fixation","","",""
"861","Set1/116a.jpg","78","image-keyboard-response","456","380372","0.0-3.0-1.226","","","Update","n","true"
"null","<div style=""font-size:60px;"">+</div>","null","html-keyboard-response","457","380886","0.0-3.0-0.227","","fixation","","",""
"835","Set1/102a.jpg","79","image-keyboard-response","458","381731","0.0-3.0-1.227","","","Update","o","true"
"null","<div style=""font-size:60px;"">+</div>","null","html-keyboard-response","459","382250","0.0-3.0-0.228","","fixation","","",""
"872","Set1/022a.jpg","79","image-keyboard-response","460","383132","0.0-3.0-1.228","","","Set_1_Only","o","true"
"null","<div style=""font-size:60px;"">+</div>","null","html-keyboard-response","461","383663","0.0-3.0-0.229","","fixation","","",""
"881","Set1/094a.jpg","79","image-keyboard-response","462","384553","0.0-3.0-1.229","","","Repeat","o","true"
"null","<div style=""font-size:60px;"">+</div>","null","html-keyboard-response","463","385081","0.0-3.0-0.230","","fixation","","",""
"850","Set1/118a.jpg","79","image-keyboard-response","464","385940","0.0-3.0-1.230","","","Update","o","true"
"null","<div style=""font-size:60px;"">+</div>","null","html-keyboard-response","465","386461","0.0-3.0-0.231","","fixation","","",""
"918","Set1/033a.jpg","79","image-keyboard-response","466","387388","0.0-3.0-1.231","","","Repeat","o","true"
"null","<div style=""font-size:60px;"">+</div>","null","html-keyboard-response","467","387917","0.0-3.0-0.232","","fixation","","",""
"1479","Set1/117a.jpg","79","image-keyboard-response","468","389404","0.0-3.0-1.232","","","Update","o","true"
"null","<div style=""font-size:60px;"">+</div>","null","html-keyboard-response","469","389931","0.0-3.0-0.233","","fixation","","",""
"902","Set1/135a.jpg","79","image-keyboard-response","470","390843","0.0-3.0-1.233","","","Update","o","true"
"null","<div style=""font-size:60px;"">+</div>","null","html-keyboard-response","471","391361","0.0-3.0-0.234","","fixation","","",""
"709","Set1/116a.jpg","79","image-keyboard-response","472","392085","0.0-3.0-1.234","","","Update","o","true"
"null","<div style=""font-size:60px;"">+</div>","null","html-keyboard-response","473","392601","0.0-3.0-0.235","","fixation","","",""
"789","Set1/143a.jpg","79","image-keyboard-response","474","393401","0.0-3.0-1.235","","","Update","o","true"
"null","<div style=""font-size:60px;"">+</div>","null","html-keyboard-response","475","393935","0.0-3.0-0.236","","fixation","","",""
"1094","Set1/074a.jpg","79","image-keyboard-response","476","395039","0.0-3.0-1.236","","","Repeat","o","true"
"null","<div style=""font-size:60px;"">+</div>","null","html-keyboard-response","477","395557","0.0-3.0-0.237","","fixation","","",""
"788","Set1/012a.jpg","79","image-keyboard-response","478","396347","0.0-3.0-1.237","","","Set_1_Only","o","true"
"null","<div style=""font-size:60px;"">+</div>","null","html-keyboard-response","479","396866","0.0-3.0-0.238","","fixation","","",""
"746","Set1/062a.jpg","79","image-keyboard-response","480","397622","0.0-3.0-1.238","","","Repeat","o","true"
"null","<div style=""font-size:60px;"">+</div>","null","html-keyboard-response","481","398154","0.0-3.0-0.239","","fixation","","",""
"966","Set1/073a.jpg","79","image-keyboard-response","482","399129","0.0-3.0-1.239","","","Repeat","o","true"
"null","<div style=""font-size:60px;"">+</div>","null","html-keyboard-response","483","399669","0.0-3.0-0.240","","fixation","","",""
"1150","Set1/029a.jpg","78","image-keyboard-response","484","400828","0.0-3.0-1.240","","","Set_1_Only","n","true"
"null","<div style=""font-size:60px;"">+</div>","null","html-keyboard-response","485","401367","0.0-3.0-0.241","","fixation","","",""
"986","Set1/098a.jpg","78","image-keyboard-response","486","402364","0.0-3.0-1.241","","","Update","n","true"
"null","<div style=""font-size:60px;"">+</div>","null","html-keyboard-response","487","402906","0.0-3.0-0.242","","fixation","","",""
"1065","Set1/086a.jpg","78","image-keyboard-response","488","403981","0.0-3.0-1.242","","","Repeat","n","true"
"null","<div style=""font-size:60px;"">+</div>","null","html-keyboard-response","489","404493","0.0-3.0-0.243","","fixation","","",""
"892","Set1/070a.jpg","78","image-keyboard-response","490","405397","0.0-3.0-1.243","","","Repeat","n","true"
"null","<div style=""font-size:60px;"">+</div>","null","html-keyboard-response","491","405933","0.0-3.0-0.244","","fixation","","",""
"889","Set1/091a.jpg","78","image-keyboard-response","492","406832","0.0-3.0-1.244","","","Repeat","n","true"
"null","<div style=""font-size:60px;"">+</div>","null","html-keyboard-response","493","407350","0.0-3.0-0.245","","fixation","","",""
"987","Set1/043a.jpg","78","image-keyboard-response","494","408348","0.0-3.0-1.245","","","Repeat","n","true"
"null","<div style=""font-size:60px;"">+</div>","null","html-keyboard-response","495","408874","0.0-3.0-0.246","","fixation","","",""
"935","Set1/083a.jpg","78","image-keyboard-response","496","409817","0.0-3.0-1.246","","","Repeat","n","true"
"null","<div style=""font-size:60px;"">+</div>","null","html-keyboard-response","497","410343","0.0-3.0-0.247","","fixation","","",""
"875","Set1/011a.jpg","78","image-keyboard-response","498","411229","0.0-3.0-1.247","","","Set_1_Only","n","true"
"null","<div style=""font-size:60px;"">+</div>","null","html-keyboard-response","499","411754","0.0-3.0-0.248","","fixation","","",""
"1002","Set1/142a.jpg","78","image-keyboard-response","500","412769","0.0-3.0-1.248","","","Update","n","true"
"null","<div style=""font-size:60px;"">+</div>","null","html-keyboard-response","501","413278","0.0-3.0-0.249","","fixation","","",""
"870","Set1/061a.jpg","78","image-keyboard-response","502","414159","0.0-3.0-1.249","","","Repeat","n","true"
"null","<div style=""font-size:60px;"">+</div>","null","html-keyboard-response","503","414696","0.0-3.0-0.250","","fixation","","",""
"875","Set1/007a.jpg","78","image-keyboard-response","504","415582","0.0-3.0-1.250","","","Set_1_Only","n","true"
"null","<div style=""font-size:60px;"">+</div>","null","html-keyboard-response","505","416114","0.0-3.0-0.251","","fixation","","",""
"969","Set1/039a.jpg","78","image-keyboard-response","506","417093","0.0-3.0-1.251","","","Repeat","n","true"
"null","<div style=""font-size:60px;"">+</div>","null","html-keyboard-response","507","417607","0.0-3.0-0.252","","fixation","","",""
"957","Set1/023a.jpg","78","image-keyboard-response","508","418573","0.0-3.0-1.252","","","Set_1_Only","n","true"
"null","<div style=""font-size:60px;"">+</div>","null","html-keyboard-response","509","419095","0.0-3.0-0.253","","fixation","","",""
"918","Set1/001a.jpg","78","image-keyboard-response","510","420028","0.0-3.0-1.253","","","Set_1_Only","n","true"
"null","<div style=""font-size:60px;"">+</div>","null","html-keyboard-response","511","420555","0.0-3.0-0.254","","fixation","","",""
"1017","Set1/038a.jpg","78","image-keyboard-response","512","421582","0.0-3.0-1.254","","","Repeat","n","true"
"null","<div style=""font-size:60px;"">+</div>","null","html-keyboard-response","513","422117","0.0-3.0-0.255","","fixation","","",""
"898","Set1/126a.jpg","78","image-keyboard-response","514","423027","0.0-3.0-1.255","","","Update","n","true"
"null","<div style=""font-size:60px;"">+</div>","null","html-keyboard-response","515","423555","0.0-3.0-0.256","","fixation","","",""
"890","Set1/021a.jpg","78","image-keyboard-response","516","424455","0.0-3.0-1.256","","","Set_1_Only","n","true"
"null","<div style=""font-size:60px;"">+</div>","null","html-keyboard-response","517","424973","0.0-3.0-0.257","","fixation","","",""
"919","Set1/109a.jpg","78","image-keyboard-response","518","425903","0.0-3.0-1.257","","","Update","n","true"
"null","<div style=""font-size:60px;"">+</div>","null","html-keyboard-response","519","426415","0.0-3.0-0.258","","fixation","","",""
"780","Set1/099a.jpg","78","image-keyboard-response","520","427205","0.0-3.0-1.258","","","Update","n","true"
"null","<div style=""font-size:60px;"">+</div>","null","html-keyboard-response","521","427737","0.0-3.0-0.259","","fixation","","",""
"816","Set1/122a.jpg","78","image-keyboard-response","522","428564","0.0-3.0-1.259","","","Update","n","true"
"null","<div style=""font-size:60px;"">+</div>","null","html-keyboard-response","523","429107","0.0-3.0-0.260","","fixation","","",""
"969","Set1/023a.jpg","79","image-keyboard-response","524","430086","0.0-3.0-1.260","","","Set_1_Only","o","true"
"null","<div style=""font-size:60px;"">+</div>","null","html-keyboard-response","525","430624","0.0-3.0-0.261","","fixation","","",""
"844","Set1/017a.jpg","78","image-keyboard-response","526","431478","0.0-3.0-1.261","","","Set_1_Only","n","true"
"null","<div style=""font-size:60px;"">+</div>","null","html-keyboard-response","527","431997","0.0-3.0-0.262","","fixation","","",""
"943","Set1/132a.jpg","78","image-keyboard-response","528","432950","0.0-3.0-1.262","","","Update","n","true"
"null","<div style=""font-size:60px;"">+</div>","null","html-keyboard-response","529","433472","0.0-3.0-0.263","","fixation","","",""
"946","Set1/042a.jpg","78","image-keyboard-response","530","434435","0.0-3.0-1.263","","","Repeat","n","true"
"null","<div style=""font-size:60px;"">+</div>","null","html-keyboard-response","531","434968","0.0-3.0-0.264","","fixation","","",""
"879","Set1/087a.jpg","78","image-keyboard-response","532","435857","0.0-3.0-1.264","","","Repeat","n","true"
"null","<div style=""font-size:60px;"">+</div>","null","html-keyboard-response","533","436386","0.0-3.0-0.265","","fixation","","",""
"841","Set1/101a.jpg","78","image-keyboard-response","534","437238","0.0-3.0-1.265","","","Update","n","true"
"null","<div style=""font-size:60px;"">+</div>","null","html-keyboard-response","535","437766","0.0-3.0-0.266","","fixation","","",""
"839","Set1/066a.jpg","78","image-keyboard-response","536","438615","0.0-3.0-1.266","","","Repeat","n","true"
"null","<div style=""font-size:60px;"">+</div>","null","html-keyboard-response","537","439134","0.0-3.0-0.267","","fixation","","",""
"889","Set1/091a.jpg","79","image-keyboard-response","538","440033","0.0-3.0-1.267","","","Repeat","o","true"
"null","<div style=""font-size:60px;"">+</div>","null","html-keyboard-response","539","440557","0.0-3.0-0.268","","fixation","","",""
"1066","Set1/077a.jpg","78","image-keyboard-response","540","441632","0.0-3.0-1.268","","","Repeat","n","true"
"null","<div style=""font-size:60px;"">+</div>","null","html-keyboard-response","541","442171","0.0-3.0-0.269","","fixation","","",""
"920","Set1/042a.jpg","79","image-keyboard-response","542","443101","0.0-3.0-1.269","","","Repeat","o","true"
"null","<div style=""font-size:60px;"">+</div>","null","html-keyboard-response","543","443636","0.0-3.0-0.270","","fixation","","",""
"1023","Set1/018a.jpg","78","image-keyboard-response","544","444670","0.0-3.0-1.270","","","Set_1_Only","n","true"
"null","<div style=""font-size:60px;"">+</div>","null","html-keyboard-response","545","445207","0.0-3.0-0.271","","fixation","","",""
"935","Set1/058a.jpg","78","image-keyboard-response","546","446155","0.0-3.0-1.271","","","Repeat","n","true"
"null","<div style=""font-size:60px;"">+</div>","null","html-keyboard-response","547","446693","0.0-3.0-0.272","","fixation","","",""
"887","Set1/132a.jpg","79","image-keyboard-response","548","447591","0.0-3.0-1.272","","","Update","o","true"
"null","<div style=""font-size:60px;"">+</div>","null","html-keyboard-response","549","448120","0.0-3.0-0.273","","fixation","","",""
"759","Set1/038a.jpg","79","image-keyboard-response","550","448892","0.0-3.0-1.273","","","Repeat","o","true"
"null","<div style=""font-size:60px;"">+</div>","null","html-keyboard-response","551","449423","0.0-3.0-0.274","","fixation","","",""
"910","Set1/066a.jpg","79","image-keyboard-response","552","450344","0.0-3.0-1.274","","","Repeat","o","true"
"null","<div style=""font-size:60px;"">+</div>","null","html-keyboard-response","553","450866","0.0-3.0-0.275","","fixation","","",""
"969","Set1/099a.jpg","79","image-keyboard-response","554","451846","0.0-3.0-1.275","","","Update","o","true"
"null","<div style=""font-size:60px;"">+</div>","null","html-keyboard-response","555","452382","0.0-3.0-0.276","","fixation","","",""
"877","Set1/126a.jpg","79","image-keyboard-response","556","453270","0.0-3.0-1.276","","","Update","o","true"
"null","<div style=""font-size:60px;"">+</div>","null","html-keyboard-response","557","453793","0.0-3.0-0.277","","fixation","","",""
"1034","Set1/009a.jpg","78","image-keyboard-response","558","454839","0.0-3.0-1.277","","","Set_1_Only","n","true"
"null","<div style=""font-size:60px;"">+</div>","null","html-keyboard-response","559","455364","0.0-3.0-0.278","","fixation","","",""
"871","Set1/046a.jpg","78","image-keyboard-response","560","456247","0.0-3.0-1.278","","","Repeat","n","true"
"null","<div style=""font-size:60px;"">+</div>","null","html-keyboard-response","561","456770","0.0-3.0-0.279","","fixation","","",""
"864","Set1/039a.jpg","79","image-keyboard-response","562","457645","0.0-3.0-1.279","","","Repeat","o","true"
"null","<div style=""font-size:60px;"">+</div>","null","html-keyboard-response","563","458171","0.0-3.0-0.280","","fixation","","",""
"796","Set1/001a.jpg","79","image-keyboard-response","564","458977","0.0-3.0-1.280","","","Set_1_Only","o","true"
"null","<div style=""font-size:60px;"">+</div>","null","html-keyboard-response","565","459504","0.0-3.0-0.281","","fixation","","",""
"770","Set1/122a.jpg","79","image-keyboard-response","566","460285","0.0-3.0-1.281","","","Update","o","true"
"null","<div style=""font-size:60px;"">+</div>","null","html-keyboard-response","567","460811","0.0-3.0-0.282","","fixation","","",""
"804","Set1/086a.jpg","79","image-keyboard-response","568","461627","0.0-3.0-1.282","","","Repeat","o","true"
"null","<div style=""font-size:60px;"">+</div>","null","html-keyboard-response","569","462156","0.0-3.0-0.283","","fixation","","",""
"823","Set1/046a.jpg","79","image-keyboard-response","570","462990","0.0-3.0-1.283","","","Repeat","o","true"
"null","<div style=""font-size:60px;"">+</div>","null","html-keyboard-response","571","463504","0.0-3.0-0.284","","fixation","","",""
"852","Set1/043a.jpg","79","image-keyboard-response","572","464360","0.0-3.0-1.284","","","Repeat","o","true"
"null","<div style=""font-size:60px;"">+</div>","null","html-keyboard-response","573","464898","0.0-3.0-0.285","","fixation","","",""
"1065","Set1/016a.jpg","78","image-keyboard-response","574","465972","0.0-3.0-1.285","","","Set_1_Only","n","true"
"null","<div style=""font-size:60px;"">+</div>","null","html-keyboard-response","575","466495","0.0-3.0-0.286","","fixation","","",""
"960","Set1/090a.jpg","78","image-keyboard-response","576","467467","0.0-3.0-1.286","","","Repeat","n","true"
"null","<div style=""font-size:60px;"">+</div>","null","html-keyboard-response","577","467991","0.0-3.0-0.287","","fixation","","",""
"966","Set1/141a.jpg","78","image-keyboard-response","578","468968","0.0-3.0-1.287","","","Update","n","true"
"null","<div style=""font-size:60px;"">+</div>","null","html-keyboard-response","579","469493","0.0-3.0-0.288","","fixation","","",""
"1064","Set1/090a.jpg","79","image-keyboard-response","580","470568","0.0-3.0-1.288","","","Repeat","o","true"
"null","<div style=""font-size:60px;"">+</div>","null","html-keyboard-response","581","471089","0.0-3.0-0.289","","fixation","","",""
"1145","Set1/139a.jpg","78","image-keyboard-response","582","472248","0.0-3.0-1.289","","","Update","n","true"
"null","<div style=""font-size:60px;"">+</div>","null","html-keyboard-response","583","472775","0.0-3.0-0.290","","fixation","","",""
"864","Set1/101a.jpg","79","image-keyboard-response","584","473649","0.0-3.0-1.290","","","Update","o","true"
"null","<div style=""font-size:60px;"">+</div>","null","html-keyboard-response","585","474165","0.0-3.0-0.291","","fixation","","",""
"1010","Set1/092a.jpg","78","image-keyboard-response","586","475185","0.0-3.0-1.291","","","Repeat","n","true"
"null","<div style=""font-size:60px;"">+</div>","null","html-keyboard-response","587","475718","0.0-3.0-0.292","","fixation","","",""
"825","Set1/087a.jpg","79","image-keyboard-response","588","476553","0.0-3.0-1.292","","","Repeat","o","true"
"null","<div style=""font-size:60px;"">+</div>","null","html-keyboard-response","589","477080","0.0-3.0-0.293","","fixation","","",""
"992","Set1/034a.jpg","78","image-keyboard-response","590","478084","0.0-3.0-1.293","","","Repeat","n","true"
"null","<div style=""font-size:60px;"">+</div>","null","html-keyboard-response","591","478600","0.0-3.0-0.294","","fixation","","",""
"996","Set1/153a.jpg","78","image-keyboard-response","592","479608","0.0-3.0-1.294","","","Update","n","true"
"null","<div style=""font-size:60px;"">+</div>","null","html-keyboard-response","593","480140","0.0-3.0-0.295","","fixation","","",""
"1170","Set1/092a.jpg","78","image-keyboard-response","594","481322","0.0-3.0-1.295","","","Repeat","o","false"
"null","<div style=""font-size:60px;"">+</div>","null","html-keyboard-response","595","481851","0.0-3.0-0.296","","fixation","","",""
"1123","Set1/077a.jpg","79","image-keyboard-response","596","482986","0.0-3.0-1.296","","","Repeat","o","true"
"null","<div style=""font-size:60px;"">+</div>","null","html-keyboard-response","597","483504","0.0-3.0-0.297","","fixation","","",""
"960","Set1/112a.jpg","78","image-keyboard-response","598","484475","0.0-3.0-1.297","","","Update","n","true"
"null","<div style=""font-size:60px;"">+</div>","null","html-keyboard-response","599","484996","0.0-3.0-0.298","","fixation","","",""
"972","Set1/018a.jpg","79","image-keyboard-response","600","485981","0.0-3.0-1.298","","","Set_1_Only","o","true"
"null","<div style=""font-size:60px;"">+</div>","null","html-keyboard-response","601","486498","0.0-3.0-0.299","","fixation","","",""
"1060","Set1/139a.jpg","79","image-keyboard-response","602","487567","0.0-3.0-1.299","","","Update","o","true"
"null","<div style=""font-size:60px;"">+</div>","null","html-keyboard-response","603","488083","0.0-3.0-0.300","","fixation","","",""
"780","Set1/153a.jpg","79","image-keyboard-response","604","488875","0.0-3.0-1.300","","","Update","o","true"
"null","<div style=""font-size:60px;"">+</div>","null","html-keyboard-response","605","489397","0.0-3.0-0.301","","fixation","","",""
"932","Set1/017a.jpg","79","image-keyboard-response","606","490339","0.0-3.0-1.301","","","Set_1_Only","o","true"
"null","<div style=""font-size:60px;"">+</div>","null","html-keyboard-response","607","490857","0.0-3.0-0.302","","fixation","","",""
"1150","Set1/112a.jpg","79","image-keyboard-response","608","492017","0.0-3.0-1.302","","","Update","o","true"
"null","<div style=""font-size:60px;"">+</div>","null","html-keyboard-response","609","492533","0.0-3.0-0.303","","fixation","","",""
"978","Set1/109a.jpg","79","image-keyboard-response","610","493520","0.0-3.0-1.303","","","Update","o","true"
"null","<div style=""font-size:60px;"">+</div>","null","html-keyboard-response","611","494050","0.0-3.0-0.304","","fixation","","",""
"862","Set1/021a.jpg","79","image-keyboard-response","612","494923","0.0-3.0-1.304","","","Set_1_Only","o","true"
"null","<div style=""font-size:60px;"">+</div>","null","html-keyboard-response","613","495445","0.0-3.0-0.305","","fixation","","",""
"715","Set1/142a.jpg","79","image-keyboard-response","614","496169","0.0-3.0-1.305","","","Update","o","true"
"null","<div style=""font-size:60px;"">+</div>","null","html-keyboard-response","615","496694","0.0-3.0-0.306","","fixation","","",""
"996","Set1/113a.jpg","78","image-keyboard-response","616","497701","0.0-3.0-1.306","","","Update","n","true"
"null","<div style=""font-size:60px;"">+</div>","null","html-keyboard-response","617","498233","0.0-3.0-0.307","","fixation","","",""
"869","Set1/016a.jpg","79","image-keyboard-response","618","499113","0.0-3.0-1.307","","","Set_1_Only","o","true"
"null","<div style=""font-size:60px;"">+</div>","null","html-keyboard-response","619","499661","0.0-3.0-0.308","","fixation","","",""
"826","Set1/061a.jpg","79","image-keyboard-response","620","500498","0.0-3.0-1.308","","","Repeat","o","true"
"null","<div style=""font-size:60px;"">+</div>","null","html-keyboard-response","621","501023","0.0-3.0-0.309","","fixation","","",""
"991","Set1/009a.jpg","79","image-keyboard-response","622","502025","0.0-3.0-1.309","","","Set_1_Only","o","true"
"null","<div style=""font-size:60px;"">+</div>","null","html-keyboard-response","623","502560","0.0-3.0-0.310","","fixation","","",""
"884","Set1/141a.jpg","79","image-keyboard-response","624","503453","0.0-3.0-1.310","","","Update","o","true"
"null","<div style=""font-size:60px;"">+</div>","null","html-keyboard-response","625","503971","0.0-3.0-0.311","","fixation","","",""
"1054","Set1/011a.jpg","79","image-keyboard-response","626","505028","0.0-3.0-1.311","","","Set_1_Only","o","true"
"null","<div style=""font-size:60px;"">+</div>","null","html-keyboard-response","627","505557","0.0-3.0-0.312","","fixation","","",""
"954","Set1/113a.jpg","79","image-keyboard-response","628","506519","0.0-3.0-1.312","","","Update","o","true"
"null","<div style=""font-size:60px;"">+</div>","null","html-keyboard-response","629","507062","0.0-3.0-0.313","","fixation","","",""
"1014","Set1/058a.jpg","79","image-keyboard-response","630","508088","0.0-3.0-1.313","","","Repeat","o","true"
"null","<div style=""font-size:60px;"">+</div>","null","html-keyboard-response","631","508613","0.0-3.0-0.314","","fixation","","",""
"844","Set1/083a.jpg","79","image-keyboard-response","632","509470","0.0-3.0-1.314","","","Repeat","o","true"
"null","<div style=""font-size:60px;"">+</div>","null","html-keyboard-response","633","510000","0.0-3.0-0.315","","fixation","","",""
"989","Set1/029a.jpg","79","image-keyboard-response","634","511000","0.0-3.0-1.315","","","Set_1_Only","o","true"
"null","<div style=""font-size:60px;"">+</div>","null","html-keyboard-response","635","511526","0.0-3.0-0.316","","fixation","","",""
"955","Set1/034a.jpg","79","image-keyboard-response","636","512492","0.0-3.0-1.316","","","Repeat","o","true"
"null","<div style=""font-size:60px;"">+</div>","null","html-keyboard-response","637","513032","0.0-3.0-0.317","","fixation","","",""
"782","Set1/070a.jpg","79","image-keyboard-response","638","513825","0.0-3.0-1.317","","","Repeat","o","true"
"null","<div style=""font-size:60px;"">+</div>","null","html-keyboard-response","639","514368","0.0-3.0-0.318","","fixation","","",""
"849","Set1/098a.jpg","79","image-keyboard-response","640","515228","0.0-3.0-1.318","","","Update","o","true"
"null","<div style=""font-size:60px;"">+</div>","null","html-keyboard-response","641","515758","0.0-3.0-0.319","","fixation","","",""
"1001","Set1/007a.jpg","79","image-keyboard-response","642","516771","0.0-3.0-1.319","","","Set_1_Only","o","true"
