"rt","stimulus","key_press","trial_type","trial_index","time_elapsed","internal_node_id","responses","test_part","stim_type","correct_response","correct"
"5364","Press any key to begin.","32","html-keyboard-response","0","5426","0.0-0.0","","","","",""
"13992","","","survey-text","1","19447","0.0-1.0","{""Q0"":""Set1128190"",""Q1"":""""}","","","",""
"14737","<p>In this experiment you will see a series of everyday objects presented one at a time at the center of the screen. Each image will be presented twice. </p><p>The first time you see the image, press the N key to indicate that it is a NEW image. The second time you see the image, press the O key to indicate that it is an OLD image.</p><div style='width: 700px;'></div><p>Press any key to begin.</p>","13","html-keyboard-response","2","34185","0.0-2.0","","","","",""
"null","<div style=""font-size:60px;"">+</div>","null","html-keyboard-response","3","36742","0.0-3.0-0.0","","fixation","","",""
"1062","Set1/063a.jpg","78","image-keyboard-response","4","37806","0.0-3.0-1.0","","","Repeat","n","true"
"null","<div style=""font-size:60px;"">+</div>","null","html-keyboard-response","5","38336","0.0-3.0-0.1","","fixation","","",""
"972","Set1/064a.jpg","78","image-keyboard-response","6","39310","0.0-3.0-1.1","","","Repeat","n","true"
"null","<div style=""font-size:60px;"">+</div>","null","html-keyboard-response","7","39820","0.0-3.0-0.2","","fixation","","",""
"821","Set1/047a.jpg","78","image-keyboard-response","8","40646","0.0-3.0-1.2","","","Repeat","n","true"
"null","<div style=""font-size:60px;"">+</div>","null","html-keyboard-response","9","41164","0.0-3.0-0.3","","fixation","","",""
"800","Set1/025a.jpg","78","image-keyboard-response","10","41966","0.0-3.0-1.3","","","Set_1_Only","n","true"
"null","<div style=""font-size:60px;"">+</div>","null","html-keyboard-response","11","42477","0.0-3.0-0.4","","fixation","","",""
"751","Set1/146a.jpg","78","image-keyboard-response","12","43231","0.0-3.0-1.4","","","Update","n","true"
"null","<div style=""font-size:60px;"">+</div>","null","html-keyboard-response","13","43758","0.0-3.0-0.5","","fixation","","",""
"782","Set1/020a.jpg","78","image-keyboard-response","14","44544","0.0-3.0-1.5","","","Set_1_Only","n","true"
"null","<div style=""font-size:60px;"">+</div>","null","html-keyboard-response","15","45056","0.0-3.0-0.6","","fixation","","",""
"1059","Set1/120a.jpg","78","image-keyboard-response","16","46120","0.0-3.0-1.6","","","Update","n","true"
"null","<div style=""font-size:60px;"">+</div>","null","html-keyboard-response","17","46634","0.0-3.0-0.7","","fixation","","",""
"834","Set1/148a.jpg","78","image-keyboard-response","18","47471","0.0-3.0-1.7","","","Update","n","true"
"null","<div style=""font-size:60px;"">+</div>","null","html-keyboard-response","19","47978","0.0-3.0-0.8","","fixation","","",""
"null","Set1/028a.jpg","null","image-keyboard-response","20","57989","0.0-3.0-1.8","","","Set_1_Only","n","false"
"null","<div style=""font-size:60px;"">+</div>","null","html-keyboard-response","21","58514","0.0-3.0-0.9","","fixation","","",""
"915","Set1/071a.jpg","78","image-keyboard-response","22","59438","0.0-3.0-1.9","","","Repeat","n","true"
"null","<div style=""font-size:60px;"">+</div>","null","html-keyboard-response","23","59940","0.0-3.0-0.10","","fixation","","",""
"799","Set1/030a.jpg","78","image-keyboard-response","24","60744","0.0-3.0-1.10","","","Set_1_Only","n","true"
"null","<div style=""font-size:60px;"">+</div>","null","html-keyboard-response","25","61254","0.0-3.0-0.11","","fixation","","",""
"1238","Set1/037a.jpg","78","image-keyboard-response","26","62502","0.0-3.0-1.11","","","Repeat","n","true"
"null","<div style=""font-size:60px;"">+</div>","null","html-keyboard-response","27","63014","0.0-3.0-0.12","","fixation","","",""
"2294","Set1/120a.jpg","79","image-keyboard-response","28","65310","0.0-3.0-1.12","","","Update","o","true"
"null","<div style=""font-size:60px;"">+</div>","null","html-keyboard-response","29","65817","0.0-3.0-0.13","","fixation","","",""
"2054","Set1/005a.jpg","78","image-keyboard-response","30","67879","0.0-3.0-1.13","","","Set_1_Only","n","true"
"null","<div style=""font-size:60px;"">+</div>","null","html-keyboard-response","31","68395","0.0-3.0-0.14","","fixation","","",""
"1056","Set1/079a.jpg","79","image-keyboard-response","32","69463","0.0-3.0-1.14","","","Repeat","n","false"
"null","<div style=""font-size:60px;"">+</div>","null","html-keyboard-response","33","69973","0.0-3.0-0.15","","fixation","","",""
"1464","Set1/136a.jpg","78","image-keyboard-response","34","71448","0.0-3.0-1.15","","","Update","n","true"
"null","<div style=""font-size:60px;"">+</div>","null","html-keyboard-response","35","71973","0.0-3.0-0.16","","fixation","","",""
"941","Set1/133a.jpg","78","image-keyboard-response","36","72928","0.0-3.0-1.16","","","Update","n","true"
"null","<div style=""font-size:60px;"">+</div>","null","html-keyboard-response","37","73443","0.0-3.0-0.17","","fixation","","",""
"803","Set1/128a.jpg","78","image-keyboard-response","38","74256","0.0-3.0-1.17","","","Update","n","true"
"null","<div style=""font-size:60px;"">+</div>","null","html-keyboard-response","39","74787","0.0-3.0-0.18","","fixation","","",""
"1577","Set1/054a.jpg","78","image-keyboard-response","40","76375","0.0-3.0-1.18","","","Repeat","n","true"
"null","<div style=""font-size:60px;"">+</div>","null","html-keyboard-response","41","76991","0.0-3.0-0.19","","fixation","","",""
"786","Set1/108a.jpg","78","image-keyboard-response","42","77790","0.0-3.0-1.19","","","Update","n","true"
"null","<div style=""font-size:60px;"">+</div>","null","html-keyboard-response","43","78303","0.0-3.0-0.20","","fixation","","",""
"874","Set1/050a.jpg","78","image-keyboard-response","44","79191","0.0-3.0-1.20","","","Repeat","n","true"
"null","<div style=""font-size:60px;"">+</div>","null","html-keyboard-response","45","79693","0.0-3.0-0.21","","fixation","","",""
"701","Set1/140a.jpg","78","image-keyboard-response","46","80408","0.0-3.0-1.21","","","Update","n","true"
"null","<div style=""font-size:60px;"">+</div>","null","html-keyboard-response","47","80927","0.0-3.0-0.22","","fixation","","",""
"916","Set1/051a.jpg","78","image-keyboard-response","48","81848","0.0-3.0-1.22","","","Repeat","n","true"
"null","<div style=""font-size:60px;"">+</div>","null","html-keyboard-response","49","82366","0.0-3.0-0.23","","fixation","","",""
"810","Set1/063a.jpg","79","image-keyboard-response","50","83192","0.0-3.0-1.23","","","Repeat","o","true"
"null","<div style=""font-size:60px;"">+</div>","null","html-keyboard-response","51","83697","0.0-3.0-0.24","","fixation","","",""
"969","Set1/006a.jpg","78","image-keyboard-response","52","84678","0.0-3.0-1.24","","","Set_1_Only","n","true"
"null","<div style=""font-size:60px;"">+</div>","null","html-keyboard-response","53","85195","0.0-3.0-0.25","","fixation","","",""
"1496","Set1/158a.jpg","78","image-keyboard-response","54","86704","0.0-3.0-1.25","","","Update","n","true"
"null","<div style=""font-size:60px;"">+</div>","null","html-keyboard-response","55","87210","0.0-3.0-0.26","","fixation","","",""
"959","Set1/020a.jpg","79","image-keyboard-response","56","88175","0.0-3.0-1.26","","","Set_1_Only","o","true"
"null","<div style=""font-size:60px;"">+</div>","null","html-keyboard-response","57","88694","0.0-3.0-0.27","","fixation","","",""
"1810","Set1/082a.jpg","78","image-keyboard-response","58","90511","0.0-3.0-1.27","","","Repeat","n","true"
"null","<div style=""font-size:60px;"">+</div>","null","html-keyboard-response","59","91039","0.0-3.0-0.28","","fixation","","",""
"1453","Set1/107a.jpg","78","image-keyboard-response","60","92504","0.0-3.0-1.28","","","Update","n","true"
"null","<div style=""font-size:60px;"">+</div>","null","html-keyboard-response","61","93008","0.0-3.0-0.29","","fixation","","",""
"976","Set1/121a.jpg","78","image-keyboard-response","62","93992","0.0-3.0-1.29","","","Update","n","true"
"null","<div style=""font-size:60px;"">+</div>","null","html-keyboard-response","63","94509","0.0-3.0-0.30","","fixation","","",""
"842","Set1/085a.jpg","78","image-keyboard-response","64","95359","0.0-3.0-1.30","","","Repeat","n","true"
"null","<div style=""font-size:60px;"">+</div>","null","html-keyboard-response","65","95880","0.0-3.0-0.31","","fixation","","",""
"1084","Set1/136a.jpg","79","image-keyboard-response","66","96968","0.0-3.0-1.31","","","Update","o","true"
"null","<div style=""font-size:60px;"">+</div>","null","html-keyboard-response","67","97480","0.0-3.0-0.32","","fixation","","",""
"955","Set1/049a.jpg","78","image-keyboard-response","68","98439","0.0-3.0-1.32","","","Repeat","n","true"
"null","<div style=""font-size:60px;"">+</div>","null","html-keyboard-response","69","98961","0.0-3.0-0.33","","fixation","","",""
"1153","Set1/133a.jpg","79","image-keyboard-response","70","100117","0.0-3.0-1.33","","","Update","o","true"
"null","<div style=""font-size:60px;"">+</div>","null","html-keyboard-response","71","100630","0.0-3.0-0.34","","fixation","","",""
"1369","Set1/093a.jpg","78","image-keyboard-response","72","102006","0.0-3.0-1.34","","","Repeat","n","true"
"null","<div style=""font-size:60px;"">+</div>","null","html-keyboard-response","73","102509","0.0-3.0-0.35","","fixation","","",""
"1077","Set1/064a.jpg","79","image-keyboard-response","74","103592","0.0-3.0-1.35","","","Repeat","o","true"
"null","<div style=""font-size:60px;"">+</div>","null","html-keyboard-response","75","104104","0.0-3.0-0.36","","fixation","","",""
"995","Set1/005a.jpg","79","image-keyboard-response","76","105103","0.0-3.0-1.36","","","Set_1_Only","o","true"
"null","<div style=""font-size:60px;"">+</div>","null","html-keyboard-response","77","105634","0.0-3.0-0.37","","fixation","","",""
"869","Set1/128a.jpg","79","image-keyboard-response","78","106510","0.0-3.0-1.37","","","Update","o","true"
"null","<div style=""font-size:60px;"">+</div>","null","html-keyboard-response","79","107030","0.0-3.0-0.38","","fixation","","",""
"1084","Set1/044a.jpg","78","image-keyboard-response","80","108119","0.0-3.0-1.38","","","Repeat","n","true"
"null","<div style=""font-size:60px;"">+</div>","null","html-keyboard-response","81","108630","0.0-3.0-0.39","","fixation","","",""
"1130","Set1/037a.jpg","79","image-keyboard-response","82","109775","0.0-3.0-1.39","","","Repeat","o","true"
"null","<div style=""font-size:60px;"">+</div>","null","html-keyboard-response","83","110296","0.0-3.0-0.40","","fixation","","",""
"1026","Set1/088a.jpg","78","image-keyboard-response","84","111326","0.0-3.0-1.40","","","Repeat","n","true"
"null","<div style=""font-size:60px;"">+</div>","null","html-keyboard-response","85","111844","0.0-3.0-0.41","","fixation","","",""
"971","Set1/106a.jpg","78","image-keyboard-response","86","112822","0.0-3.0-1.41","","","Update","n","true"
"null","<div style=""font-size:60px;"">+</div>","null","html-keyboard-response","87","113328","0.0-3.0-0.42","","fixation","","",""
"996","Set1/031a.jpg","78","image-keyboard-response","88","114334","0.0-3.0-1.42","","","Set_1_Only","n","true"
"null","<div style=""font-size:60px;"">+</div>","null","html-keyboard-response","89","114859","0.0-3.0-0.43","","fixation","","",""
"1001","Set1/160a.jpg","78","image-keyboard-response","90","115863","0.0-3.0-1.43","","","Update","n","true"
"null","<div style=""font-size:60px;"">+</div>","null","html-keyboard-response","91","116375","0.0-3.0-0.44","","fixation","","",""
"853","Set1/025a.jpg","79","image-keyboard-response","92","117240","0.0-3.0-1.44","","","Set_1_Only","o","true"
"null","<div style=""font-size:60px;"">+</div>","null","html-keyboard-response","93","117751","0.0-3.0-0.45","","fixation","","",""
"1285","Set1/088a.jpg","79","image-keyboard-response","94","119039","0.0-3.0-1.45","","","Repeat","o","true"
"null","<div style=""font-size:60px;"">+</div>","null","html-keyboard-response","95","119549","0.0-3.0-0.46","","fixation","","",""
"906","Set1/093a.jpg","79","image-keyboard-response","96","120462","0.0-3.0-1.46","","","Repeat","o","true"
"null","<div style=""font-size:60px;"">+</div>","null","html-keyboard-response","97","120970","0.0-3.0-0.47","","fixation","","",""
"908","Set1/054a.jpg","79","image-keyboard-response","98","121888","0.0-3.0-1.47","","","Repeat","o","true"
"null","<div style=""font-size:60px;"">+</div>","null","html-keyboard-response","99","122397","0.0-3.0-0.48","","fixation","","",""
"940","Set1/105a.jpg","78","image-keyboard-response","100","123343","0.0-3.0-1.48","","","Update","n","true"
"null","<div style=""font-size:60px;"">+</div>","null","html-keyboard-response","101","123861","0.0-3.0-0.49","","fixation","","",""
"1212","Set1/045a.jpg","78","image-keyboard-response","102","125080","0.0-3.0-1.49","","","Repeat","n","true"
"null","<div style=""font-size:60px;"">+</div>","null","html-keyboard-response","103","125597","0.0-3.0-0.50","","fixation","","",""
"986","Set1/006a.jpg","79","image-keyboard-response","104","126587","0.0-3.0-1.50","","","Set_1_Only","o","true"
"null","<div style=""font-size:60px;"">+</div>","null","html-keyboard-response","105","127112","0.0-3.0-0.51","","fixation","","",""
"937","Set1/140a.jpg","79","image-keyboard-response","106","128055","0.0-3.0-1.51","","","Update","o","true"
"null","<div style=""font-size:60px;"">+</div>","null","html-keyboard-response","107","128581","0.0-3.0-0.52","","fixation","","",""
"973","Set1/027a.jpg","78","image-keyboard-response","108","129558","0.0-3.0-1.52","","","Set_1_Only","n","true"
"null","<div style=""font-size:60px;"">+</div>","null","html-keyboard-response","109","130065","0.0-3.0-0.53","","fixation","","",""
"2141","Set1/049a.jpg","79","image-keyboard-response","110","132208","0.0-3.0-1.53","","","Repeat","o","true"
"null","<div style=""font-size:60px;"">+</div>","null","html-keyboard-response","111","132722","0.0-3.0-0.54","","fixation","","",""
"833","Set1/051a.jpg","79","image-keyboard-response","112","133558","0.0-3.0-1.54","","","Repeat","o","true"
"null","<div style=""font-size:60px;"">+</div>","null","html-keyboard-response","113","134081","0.0-3.0-0.55","","fixation","","",""
"832","Set1/028a.jpg","79","image-keyboard-response","114","134919","0.0-3.0-1.55","","","Set_1_Only","o","true"
"null","<div style=""font-size:60px;"">+</div>","null","html-keyboard-response","115","135425","0.0-3.0-0.56","","fixation","","",""
"879","Set1/047a.jpg","79","image-keyboard-response","116","136311","0.0-3.0-1.56","","","Repeat","o","true"
"null","<div style=""font-size:60px;"">+</div>","null","html-keyboard-response","117","136816","0.0-3.0-0.57","","fixation","","",""
"976","Set1/071a.jpg","79","image-keyboard-response","118","137799","0.0-3.0-1.57","","","Repeat","o","true"
"null","<div style=""font-size:60px;"">+</div>","null","html-keyboard-response","119","138316","0.0-3.0-0.58","","fixation","","",""
"1967","Set1/108a.jpg","79","image-keyboard-response","120","140287","0.0-3.0-1.58","","","Update","o","true"
"null","<div style=""font-size:60px;"">+</div>","null","html-keyboard-response","121","140801","0.0-3.0-0.59","","fixation","","",""
"1012","Set1/027a.jpg","79","image-keyboard-response","122","141815","0.0-3.0-1.59","","","Set_1_Only","o","true"
"null","<div style=""font-size:60px;"">+</div>","null","html-keyboard-response","123","142332","0.0-3.0-0.60","","fixation","","",""
"887","Set1/044a.jpg","79","image-keyboard-response","124","143223","0.0-3.0-1.60","","","Repeat","o","true"
"null","<div style=""font-size:60px;"">+</div>","null","html-keyboard-response","125","143739","0.0-3.0-0.61","","fixation","","",""
"900","Set1/045a.jpg","79","image-keyboard-response","126","144647","0.0-3.0-1.61","","","Repeat","o","true"
"null","<div style=""font-size:60px;"">+</div>","null","html-keyboard-response","127","145164","0.0-3.0-0.62","","fixation","","",""
"933","Set1/134a.jpg","78","image-keyboard-response","128","146102","0.0-3.0-1.62","","","Update","n","true"
"null","<div style=""font-size:60px;"">+</div>","null","html-keyboard-response","129","146630","0.0-3.0-0.63","","fixation","","",""
"1136","Set1/158a.jpg","79","image-keyboard-response","130","147773","0.0-3.0-1.63","","","Update","o","true"
"null","<div style=""font-size:60px;"">+</div>","null","html-keyboard-response","131","148287","0.0-3.0-0.64","","fixation","","",""
"950","Set1/106a.jpg","79","image-keyboard-response","132","149238","0.0-3.0-1.64","","","Update","o","true"
"null","<div style=""font-size:60px;"">+</div>","null","html-keyboard-response","133","149754","0.0-3.0-0.65","","fixation","","",""
"1048","Set1/119a.jpg","78","image-keyboard-response","134","150806","0.0-3.0-1.65","","","Update","n","true"
"null","<div style=""font-size:60px;"">+</div>","null","html-keyboard-response","135","151329","0.0-3.0-0.66","","fixation","","",""
"1054","Set1/105a.jpg","79","image-keyboard-response","136","152391","0.0-3.0-1.66","","","Update","o","true"
"null","<div style=""font-size:60px;"">+</div>","null","html-keyboard-response","137","152913","0.0-3.0-0.67","","fixation","","",""
"1892","Set1/119a.jpg","79","image-keyboard-response","138","154806","0.0-3.0-1.67","","","Update","o","true"
"null","<div style=""font-size:60px;"">+</div>","null","html-keyboard-response","139","155318","0.0-3.0-0.68","","fixation","","",""
"963","Set1/148a.jpg","79","image-keyboard-response","140","156286","0.0-3.0-1.68","","","Update","o","true"
"null","<div style=""font-size:60px;"">+</div>","null","html-keyboard-response","141","156794","0.0-3.0-0.69","","fixation","","",""
"880","Set1/031a.jpg","79","image-keyboard-response","142","157678","0.0-3.0-1.69","","","Set_1_Only","o","true"
"null","<div style=""font-size:60px;"">+</div>","null","html-keyboard-response","143","158198","0.0-3.0-0.70","","fixation","","",""
"1133","Set1/050a.jpg","79","image-keyboard-response","144","159333","0.0-3.0-1.70","","","Repeat","o","true"
"null","<div style=""font-size:60px;"">+</div>","null","html-keyboard-response","145","159839","0.0-3.0-0.71","","fixation","","",""
"1001","Set1/082a.jpg","79","image-keyboard-response","146","160846","0.0-3.0-1.71","","","Repeat","o","true"
"null","<div style=""font-size:60px;"">+</div>","null","html-keyboard-response","147","161354","0.0-3.0-0.72","","fixation","","",""
"823","Set1/085a.jpg","79","image-keyboard-response","148","162182","0.0-3.0-1.72","","","Repeat","o","true"
"null","<div style=""font-size:60px;"">+</div>","null","html-keyboard-response","149","162698","0.0-3.0-0.73","","fixation","","",""
"945","Set1/030a.jpg","79","image-keyboard-response","150","163647","0.0-3.0-1.73","","","Set_1_Only","o","true"
"null","<div style=""font-size:60px;"">+</div>","null","html-keyboard-response","151","164168","0.0-3.0-0.74","","fixation","","",""
"1009","Set1/160a.jpg","79","image-keyboard-response","152","165184","0.0-3.0-1.74","","","Update","o","true"
"null","<div style=""font-size:60px;"">+</div>","null","html-keyboard-response","153","165714","0.0-3.0-0.75","","fixation","","",""
"1009","Set1/134a.jpg","79","image-keyboard-response","154","166727","0.0-3.0-1.75","","","Update","o","true"
"null","<div style=""font-size:60px;"">+</div>","null","html-keyboard-response","155","167246","0.0-3.0-0.76","","fixation","","",""
"null","Set1/146a.jpg","null","image-keyboard-response","156","177263","0.0-3.0-1.76","","","Update","o","false"
"null","<div style=""font-size:60px;"">+</div>","null","html-keyboard-response","157","177779","0.0-3.0-0.77","","fixation","","",""
"2004","Set1/107a.jpg","79","image-keyboard-response","158","179790","0.0-3.0-1.77","","","Update","o","true"
"null","<div style=""font-size:60px;"">+</div>","null","html-keyboard-response","159","180295","0.0-3.0-0.78","","fixation","","",""
"845","Set1/079a.jpg","79","image-keyboard-response","160","181143","0.0-3.0-1.78","","","Repeat","o","true"
"null","<div style=""font-size:60px;"">+</div>","null","html-keyboard-response","161","181654","0.0-3.0-0.79","","fixation","","",""
"713","Set1/121a.jpg","79","image-keyboard-response","162","182374","0.0-3.0-1.79","","","Update","o","true"
"null","<div style=""font-size:60px;"">+</div>","null","html-keyboard-response","163","182909","0.0-3.0-0.80","","fixation","","",""
"1093","Set1/095a.jpg","78","image-keyboard-response","164","184007","0.0-3.0-1.80","","","Repeat","n","true"
"null","<div style=""font-size:60px;"">+</div>","null","html-keyboard-response","165","184514","0.0-3.0-0.81","","fixation","","",""
"928","Set1/041a.jpg","78","image-keyboard-response","166","185447","0.0-3.0-1.81","","","Repeat","n","true"
"null","<div style=""font-size:60px;"">+</div>","null","html-keyboard-response","167","185963","0.0-3.0-0.82","","fixation","","",""
"886","Set1/100a.jpg","78","image-keyboard-response","168","186855","0.0-3.0-1.82","","","Update","n","true"
"null","<div style=""font-size:60px;"">+</div>","null","html-keyboard-response","169","187359","0.0-3.0-0.83","","fixation","","",""
"859","Set1/036a.jpg","78","image-keyboard-response","170","188223","0.0-3.0-1.83","","","Repeat","n","true"
"null","<div style=""font-size:60px;"">+</div>","null","html-keyboard-response","171","188733","0.0-3.0-0.84","","fixation","","",""
"900","Set1/115a.jpg","78","image-keyboard-response","172","189639","0.0-3.0-1.84","","","Update","n","true"
"null","<div style=""font-size:60px;"">+</div>","null","html-keyboard-response","173","190156","0.0-3.0-0.85","","fixation","","",""
"906","Set1/123a.jpg","78","image-keyboard-response","174","191071","0.0-3.0-1.85","","","Update","n","true"
"null","<div style=""font-size:60px;"">+</div>","null","html-keyboard-response","175","191578","0.0-3.0-0.86","","fixation","","",""
"967","Set1/015a.jpg","78","image-keyboard-response","176","192551","0.0-3.0-1.86","","","Set_1_Only","n","true"
"null","<div style=""font-size:60px;"">+</div>","null","html-keyboard-response","177","193062","0.0-3.0-0.87","","fixation","","",""
"1090","Set1/096a.jpg","78","image-keyboard-response","178","194158","0.0-3.0-1.87","","","Repeat","n","true"
"null","<div style=""font-size:60px;"">+</div>","null","html-keyboard-response","179","194692","0.0-3.0-0.88","","fixation","","",""
"973","Set1/110a.jpg","78","image-keyboard-response","180","195671","0.0-3.0-1.88","","","Update","n","true"
"null","<div style=""font-size:60px;"">+</div>","null","html-keyboard-response","181","196188","0.0-3.0-0.89","","fixation","","",""
"961","Set1/151a.jpg","78","image-keyboard-response","182","197150","0.0-3.0-1.89","","","Update","n","true"
"null","<div style=""font-size:60px;"">+</div>","null","html-keyboard-response","183","197663","0.0-3.0-0.90","","fixation","","",""
"970","Set1/035a.jpg","78","image-keyboard-response","184","198639","0.0-3.0-1.90","","","Repeat","n","true"
"null","<div style=""font-size:60px;"">+</div>","null","html-keyboard-response","185","199157","0.0-3.0-0.91","","fixation","","",""
"947","Set1/026a.jpg","78","image-keyboard-response","186","200110","0.0-3.0-1.91","","","Set_1_Only","n","true"
"null","<div style=""font-size:60px;"">+</div>","null","html-keyboard-response","187","200627","0.0-3.0-0.92","","fixation","","",""
"951","Set1/067a.jpg","78","image-keyboard-response","188","201583","0.0-3.0-1.92","","","Repeat","n","true"
"null","<div style=""font-size:60px;"">+</div>","null","html-keyboard-response","189","202096","0.0-3.0-0.93","","fixation","","",""
"729","Set1/076a.jpg","78","image-keyboard-response","190","202831","0.0-3.0-1.93","","","Repeat","n","true"
"null","<div style=""font-size:60px;"">+</div>","null","html-keyboard-response","191","203361","0.0-3.0-0.94","","fixation","","",""
"824","Set1/125a.jpg","78","image-keyboard-response","192","204191","0.0-3.0-1.94","","","Update","n","true"
"null","<div style=""font-size:60px;"">+</div>","null","html-keyboard-response","193","204705","0.0-3.0-0.95","","fixation","","",""
"876","Set1/123a.jpg","79","image-keyboard-response","194","205585","0.0-3.0-1.95","","","Update","o","true"
"null","<div style=""font-size:60px;"">+</div>","null","html-keyboard-response","195","206096","0.0-3.0-0.96","","fixation","","",""
"891","Set1/076a.jpg","79","image-keyboard-response","196","206991","0.0-3.0-1.96","","","Repeat","o","true"
"null","<div style=""font-size:60px;"">+</div>","null","html-keyboard-response","197","207519","0.0-3.0-0.97","","fixation","","",""
"1097","Set1/151a.jpg","79","image-keyboard-response","198","208622","0.0-3.0-1.97","","","Update","o","true"
"null","<div style=""font-size:60px;"">+</div>","null","html-keyboard-response","199","209143","0.0-3.0-0.98","","fixation","","",""
"880","Set1/115a.jpg","79","image-keyboard-response","200","210031","0.0-3.0-1.98","","","Update","o","true"
"null","<div style=""font-size:60px;"">+</div>","null","html-keyboard-response","201","210534","0.0-3.0-0.99","","fixation","","",""
"978","Set1/081a.jpg","78","image-keyboard-response","202","211519","0.0-3.0-1.99","","","Repeat","n","true"
"null","<div style=""font-size:60px;"">+</div>","null","html-keyboard-response","203","212050","0.0-3.0-0.100","","fixation","","",""
"912","Set1/015a.jpg","79","image-keyboard-response","204","212967","0.0-3.0-1.100","","","Set_1_Only","o","true"
"null","<div style=""font-size:60px;"">+</div>","null","html-keyboard-response","205","213488","0.0-3.0-0.101","","fixation","","",""
"879","Set1/035a.jpg","79","image-keyboard-response","206","214374","0.0-3.0-1.101","","","Repeat","o","true"
"null","<div style=""font-size:60px;"">+</div>","null","html-keyboard-response","207","214879","0.0-3.0-0.102","","fixation","","",""
"905","Set1/014a.jpg","78","image-keyboard-response","208","215791","0.0-3.0-1.102","","","Set_1_Only","n","true"
"null","<div style=""font-size:60px;"">+</div>","null","html-keyboard-response","209","216302","0.0-3.0-0.103","","fixation","","",""
"835","Set1/152a.jpg","78","image-keyboard-response","210","217142","0.0-3.0-1.103","","","Update","n","true"
"null","<div style=""font-size:60px;"">+</div>","null","html-keyboard-response","211","217660","0.0-3.0-0.104","","fixation","","",""
"892","Set1/114a.jpg","78","image-keyboard-response","212","218559","0.0-3.0-1.104","","","Update","n","true"
"null","<div style=""font-size:60px;"">+</div>","null","html-keyboard-response","213","219067","0.0-3.0-0.105","","fixation","","",""
"974","Set1/019a.jpg","78","image-keyboard-response","214","220046","0.0-3.0-1.105","","","Set_1_Only","n","true"
"null","<div style=""font-size:60px;"">+</div>","null","html-keyboard-response","215","220552","0.0-3.0-0.106","","fixation","","",""
"977","Set1/013a.jpg","78","image-keyboard-response","216","221534","0.0-3.0-1.106","","","Set_1_Only","n","true"
"null","<div style=""font-size:60px;"">+</div>","null","html-keyboard-response","217","222047","0.0-3.0-0.107","","fixation","","",""
"986","Set1/053a.jpg","78","image-keyboard-response","218","223038","0.0-3.0-1.107","","","Repeat","n","true"
"null","<div style=""font-size:60px;"">+</div>","null","html-keyboard-response","219","223553","0.0-3.0-0.108","","fixation","","",""
"834","Set1/026a.jpg","79","image-keyboard-response","220","224391","0.0-3.0-1.108","","","Set_1_Only","o","true"
"null","<div style=""font-size:60px;"">+</div>","null","html-keyboard-response","221","224900","0.0-3.0-0.109","","fixation","","",""
"876","Set1/138a.jpg","78","image-keyboard-response","222","225783","0.0-3.0-1.109","","","Update","n","true"
"null","<div style=""font-size:60px;"">+</div>","null","html-keyboard-response","223","226287","0.0-3.0-0.110","","fixation","","",""
"1113","Set1/010a.jpg","78","image-keyboard-response","224","227406","0.0-3.0-1.110","","","Set_1_Only","n","true"
"null","<div style=""font-size:60px;"">+</div>","null","html-keyboard-response","225","227913","0.0-3.0-0.111","","fixation","","",""
"920","Set1/008a.jpg","78","image-keyboard-response","226","228839","0.0-3.0-1.111","","","Set_1_Only","n","true"
"null","<div style=""font-size:60px;"">+</div>","null","html-keyboard-response","227","229350","0.0-3.0-0.112","","fixation","","",""
"768","Set1/036a.jpg","79","image-keyboard-response","228","230127","0.0-3.0-1.112","","","Repeat","o","true"
"null","<div style=""font-size:60px;"">+</div>","null","html-keyboard-response","229","230631","0.0-3.0-0.113","","fixation","","",""
"823","Set1/081a.jpg","79","image-keyboard-response","230","231462","0.0-3.0-1.113","","","Repeat","o","true"
"null","<div style=""font-size:60px;"">+</div>","null","html-keyboard-response","231","231991","0.0-3.0-0.114","","fixation","","",""
"740","Set1/114a.jpg","79","image-keyboard-response","232","232735","0.0-3.0-1.114","","","Update","o","true"
"null","<div style=""font-size:60px;"">+</div>","null","html-keyboard-response","233","233242","0.0-3.0-0.115","","fixation","","",""
"894","Set1/156a.jpg","78","image-keyboard-response","234","234143","0.0-3.0-1.115","","","Update","n","true"
"null","<div style=""font-size:60px;"">+</div>","null","html-keyboard-response","235","234648","0.0-3.0-0.116","","fixation","","",""
"873","Set1/056a.jpg","78","image-keyboard-response","236","235526","0.0-3.0-1.116","","","Repeat","n","true"
"null","<div style=""font-size:60px;"">+</div>","null","html-keyboard-response","237","236039","0.0-3.0-0.117","","fixation","","",""
"1138","Set1/150a.jpg","78","image-keyboard-response","238","237182","0.0-3.0-1.117","","","Update","n","true"
"null","<div style=""font-size:60px;"">+</div>","null","html-keyboard-response","239","237696","0.0-3.0-0.118","","fixation","","",""
"943","Set1/152a.jpg","79","image-keyboard-response","240","238646","0.0-3.0-1.118","","","Update","o","true"
"null","<div style=""font-size:60px;"">+</div>","null","html-keyboard-response","241","239149","0.0-3.0-0.119","","fixation","","",""
"1141","Set1/157a.jpg","78","image-keyboard-response","242","240294","0.0-3.0-1.119","","","Update","n","true"
"null","<div style=""font-size:60px;"">+</div>","null","html-keyboard-response","243","240805","0.0-3.0-0.120","","fixation","","",""
"1067","Set1/059a.jpg","78","image-keyboard-response","244","241878","0.0-3.0-1.120","","","Repeat","n","true"
"null","<div style=""font-size:60px;"">+</div>","null","html-keyboard-response","245","242384","0.0-3.0-0.121","","fixation","","",""
"784","Set1/055a.jpg","78","image-keyboard-response","246","243173","0.0-3.0-1.121","","","Repeat","n","true"
"null","<div style=""font-size:60px;"">+</div>","null","html-keyboard-response","247","243697","0.0-3.0-0.122","","fixation","","",""
"1022","Set1/019a.jpg","79","image-keyboard-response","248","244726","0.0-3.0-1.122","","","Set_1_Only","o","true"
"null","<div style=""font-size:60px;"">+</div>","null","html-keyboard-response","249","245244","0.0-3.0-0.123","","fixation","","",""
"884","Set1/075a.jpg","78","image-keyboard-response","250","246135","0.0-3.0-1.123","","","Repeat","n","true"
"null","<div style=""font-size:60px;"">+</div>","null","html-keyboard-response","251","246649","0.0-3.0-0.124","","fixation","","",""
"791","Set1/048a.jpg","78","image-keyboard-response","252","247447","0.0-3.0-1.124","","","Repeat","n","true"
"null","<div style=""font-size:60px;"">+</div>","null","html-keyboard-response","253","247947","0.0-3.0-0.125","","fixation","","",""
"830","Set1/052a.jpg","78","image-keyboard-response","254","248783","0.0-3.0-1.125","","","Repeat","n","true"
"null","<div style=""font-size:60px;"">+</div>","null","html-keyboard-response","255","249291","0.0-3.0-0.126","","fixation","","",""
"793","Set1/154a.jpg","78","image-keyboard-response","256","250086","0.0-3.0-1.126","","","Update","n","true"
"null","<div style=""font-size:60px;"">+</div>","null","html-keyboard-response","257","250613","0.0-3.0-0.127","","fixation","","",""
"841","Set1/041a.jpg","79","image-keyboard-response","258","251462","0.0-3.0-1.127","","","Repeat","o","true"
"null","<div style=""font-size:60px;"">+</div>","null","html-keyboard-response","259","251974","0.0-3.0-0.128","","fixation","","",""
"721","Set1/010a.jpg","79","image-keyboard-response","260","252703","0.0-3.0-1.128","","","Set_1_Only","o","true"
"null","<div style=""font-size:60px;"">+</div>","null","html-keyboard-response","261","253231","0.0-3.0-0.129","","fixation","","",""
"819","Set1/008a.jpg","79","image-keyboard-response","262","254053","0.0-3.0-1.129","","","Set_1_Only","o","true"
"null","<div style=""font-size:60px;"">+</div>","null","html-keyboard-response","263","254567","0.0-3.0-0.130","","fixation","","",""
"1080","Set1/154a.jpg","79","image-keyboard-response","264","255654","0.0-3.0-1.130","","","Update","o","true"
"null","<div style=""font-size:60px;"">+</div>","null","html-keyboard-response","265","256173","0.0-3.0-0.131","","fixation","","",""
"802","Set1/048a.jpg","79","image-keyboard-response","266","256982","0.0-3.0-1.131","","","Repeat","o","true"
"null","<div style=""font-size:60px;"">+</div>","null","html-keyboard-response","267","257493","0.0-3.0-0.132","","fixation","","",""
"806","Set1/053a.jpg","79","image-keyboard-response","268","258302","0.0-3.0-1.132","","","Repeat","o","true"
"null","<div style=""font-size:60px;"">+</div>","null","html-keyboard-response","269","258829","0.0-3.0-0.133","","fixation","","",""
"933","Set1/138a.jpg","79","image-keyboard-response","270","259766","0.0-3.0-1.133","","","Update","o","true"
"null","<div style=""font-size:60px;"">+</div>","null","html-keyboard-response","271","260276","0.0-3.0-0.134","","fixation","","",""
"776","Set1/014a.jpg","79","image-keyboard-response","272","261054","0.0-3.0-1.134","","","Set_1_Only","o","true"
"null","<div style=""font-size:60px;"">+</div>","null","html-keyboard-response","273","261572","0.0-3.0-0.135","","fixation","","",""
"872","Set1/075a.jpg","79","image-keyboard-response","274","262446","0.0-3.0-1.135","","","Repeat","o","true"
"null","<div style=""font-size:60px;"">+</div>","null","html-keyboard-response","275","262963","0.0-3.0-0.136","","fixation","","",""
"846","Set1/111a.jpg","78","image-keyboard-response","276","263815","0.0-3.0-1.136","","","Update","n","true"
"null","<div style=""font-size:60px;"">+</div>","null","html-keyboard-response","277","264338","0.0-3.0-0.137","","fixation","","",""
"836","Set1/056a.jpg","79","image-keyboard-response","278","265183","0.0-3.0-1.137","","","Repeat","o","true"
"null","<div style=""font-size:60px;"">+</div>","null","html-keyboard-response","279","265698","0.0-3.0-0.138","","fixation","","",""
"1078","Set1/003a.jpg","78","image-keyboard-response","280","266783","0.0-3.0-1.138","","","Set_1_Only","n","true"
"null","<div style=""font-size:60px;"">+</div>","null","html-keyboard-response","281","267291","0.0-3.0-0.139","","fixation","","",""
"956","Set1/125a.jpg","79","image-keyboard-response","282","268255","0.0-3.0-1.139","","","Update","o","true"
"null","<div style=""font-size:60px;"">+</div>","null","html-keyboard-response","283","268761","0.0-3.0-0.140","","fixation","","",""
"1000","Set1/072a.jpg","78","image-keyboard-response","284","269767","0.0-3.0-1.140","","","Repeat","n","true"
"null","<div style=""font-size:60px;"">+</div>","null","html-keyboard-response","285","270279","0.0-3.0-0.141","","fixation","","",""
"949","Set1/084a.jpg","78","image-keyboard-response","286","271230","0.0-3.0-1.141","","","Repeat","n","true"
"null","<div style=""font-size:60px;"">+</div>","null","html-keyboard-response","287","271761","0.0-3.0-0.142","","fixation","","",""
"889","Set1/156a.jpg","79","image-keyboard-response","288","272654","0.0-3.0-1.142","","","Update","o","true"
"null","<div style=""font-size:60px;"">+</div>","null","html-keyboard-response","289","273167","0.0-3.0-0.143","","fixation","","",""
"940","Set1/003a.jpg","78","image-keyboard-response","290","274110","0.0-3.0-1.143","","","Set_1_Only","o","false"
"null","<div style=""font-size:60px;"">+</div>","null","html-keyboard-response","291","274621","0.0-3.0-0.144","","fixation","","",""
"1098","Set1/059a.jpg","79","image-keyboard-response","292","275727","0.0-3.0-1.144","","","Repeat","o","true"
"null","<div style=""font-size:60px;"">+</div>","null","html-keyboard-response","293","276246","0.0-3.0-0.145","","fixation","","",""
"912","Set1/110a.jpg","79","image-keyboard-response","294","277166","0.0-3.0-1.145","","","Update","o","true"
"null","<div style=""font-size:60px;"">+</div>","null","html-keyboard-response","295","277680","0.0-3.0-0.146","","fixation","","",""
"948","Set1/084a.jpg","78","image-keyboard-response","296","278630","0.0-3.0-1.146","","","Repeat","o","false"
"null","<div style=""font-size:60px;"">+</div>","null","html-keyboard-response","297","279138","0.0-3.0-0.147","","fixation","","",""
"2010","Set1/072a.jpg","79","image-keyboard-response","298","281151","0.0-3.0-1.147","","","Repeat","o","true"
"null","<div style=""font-size:60px;"">+</div>","null","html-keyboard-response","299","281654","0.0-3.0-0.148","","fixation","","",""
"955","Set1/127a.jpg","78","image-keyboard-response","300","282615","0.0-3.0-1.148","","","Update","n","true"
"null","<div style=""font-size:60px;"">+</div>","null","html-keyboard-response","301","283139","0.0-3.0-0.149","","fixation","","",""
"1306","Set1/095a.jpg","78","image-keyboard-response","302","284454","0.0-3.0-1.149","","","Repeat","o","false"
"null","<div style=""font-size:60px;"">+</div>","null","html-keyboard-response","303","284967","0.0-3.0-0.150","","fixation","","",""
"768","Set1/013a.jpg","79","image-keyboard-response","304","285742","0.0-3.0-1.150","","","Set_1_Only","o","true"
"null","<div style=""font-size:60px;"">+</div>","null","html-keyboard-response","305","286248","0.0-3.0-0.151","","fixation","","",""
"879","Set1/067a.jpg","78","image-keyboard-response","306","287135","0.0-3.0-1.151","","","Repeat","o","false"
"null","<div style=""font-size:60px;"">+</div>","null","html-keyboard-response","307","287654","0.0-3.0-0.152","","fixation","","",""
"896","Set1/157a.jpg","79","image-keyboard-response","308","288558","0.0-3.0-1.152","","","Update","o","true"
"null","<div style=""font-size:60px;"">+</div>","null","html-keyboard-response","309","289077","0.0-3.0-0.153","","fixation","","",""
"1314","Set1/127a.jpg","79","image-keyboard-response","310","290398","0.0-3.0-1.153","","","Update","o","true"
"null","<div style=""font-size:60px;"">+</div>","null","html-keyboard-response","311","290913","0.0-3.0-0.154","","fixation","","",""
"854","Set1/052a.jpg","79","image-keyboard-response","312","291774","0.0-3.0-1.154","","","Repeat","o","true"
"null","<div style=""font-size:60px;"">+</div>","null","html-keyboard-response","313","292281","0.0-3.0-0.155","","fixation","","",""
"766","Set1/055a.jpg","79","image-keyboard-response","314","293054","0.0-3.0-1.155","","","Repeat","o","true"
"null","<div style=""font-size:60px;"">+</div>","null","html-keyboard-response","315","293563","0.0-3.0-0.156","","fixation","","",""
"820","Set1/111a.jpg","78","image-keyboard-response","316","294390","0.0-3.0-1.156","","","Update","o","false"
"null","<div style=""font-size:60px;"">+</div>","null","html-keyboard-response","317","294906","0.0-3.0-0.157","","fixation","","",""
"941","Set1/150a.jpg","79","image-keyboard-response","318","295854","0.0-3.0-1.157","","","Update","o","true"
"null","<div style=""font-size:60px;"">+</div>","null","html-keyboard-response","319","296359","0.0-3.0-0.158","","fixation","","",""
"1183","Set1/100a.jpg","78","image-keyboard-response","320","297550","0.0-3.0-1.158","","","Update","o","false"
"null","<div style=""font-size:60px;"">+</div>","null","html-keyboard-response","321","298062","0.0-3.0-0.159","","fixation","","",""
"1000","Set1/096a.jpg","79","image-keyboard-response","322","299071","0.0-3.0-1.159","","","Repeat","o","true"
"null","<div style=""font-size:60px;"">+</div>","null","html-keyboard-response","323","299578","0.0-3.0-0.160","","fixation","","",""
"894","Set1/159a.jpg","78","image-keyboard-response","324","300478","0.0-3.0-1.160","","","Update","n","true"
"null","<div style=""font-size:60px;"">+</div>","null","html-keyboard-response","325","300996","0.0-3.0-0.161","","fixation","","",""
"820","Set1/074a.jpg","78","image-keyboard-response","326","301822","0.0-3.0-1.161","","","Repeat","n","true"
"null","<div style=""font-size:60px;"">+</div>","null","html-keyboard-response","327","302329","0.0-3.0-0.162","","fixation","","",""
"1040","Set1/060a.jpg","78","image-keyboard-response","328","303374","0.0-3.0-1.162","","","Repeat","n","true"
"null","<div style=""font-size:60px;"">+</div>","null","html-keyboard-response","329","303891","0.0-3.0-0.163","","fixation","","",""
"845","Set1/062a.jpg","78","image-keyboard-response","330","304742","0.0-3.0-1.163","","","Repeat","n","true"
"null","<div style=""font-size:60px;"">+</div>","null","html-keyboard-response","331","305263","0.0-3.0-0.164","","fixation","","",""
"737","Set1/155a.jpg","78","image-keyboard-response","332","306007","0.0-3.0-1.164","","","Update","n","true"
"null","<div style=""font-size:60px;"">+</div>","null","html-keyboard-response","333","306517","0.0-3.0-0.165","","fixation","","",""
"628","Set1/117a.jpg","78","image-keyboard-response","334","307150","0.0-3.0-1.165","","","Update","n","true"
"null","<div style=""font-size:60px;"">+</div>","null","html-keyboard-response","335","307657","0.0-3.0-0.166","","fixation","","",""
"694","Set1/004a.jpg","78","image-keyboard-response","336","308358","0.0-3.0-1.166","","","Set_1_Only","n","true"
"null","<div style=""font-size:60px;"">+</div>","null","html-keyboard-response","337","308876","0.0-3.0-0.167","","fixation","","",""
"860","Set1/097a.jpg","78","image-keyboard-response","338","309742","0.0-3.0-1.167","","","Update","n","true"
"null","<div style=""font-size:60px;"">+</div>","null","html-keyboard-response","339","310253","0.0-3.0-0.168","","fixation","","",""
"802","Set1/130a.jpg","78","image-keyboard-response","340","311063","0.0-3.0-1.168","","","Update","n","true"
"null","<div style=""font-size:60px;"">+</div>","null","html-keyboard-response","341","311579","0.0-3.0-0.169","","fixation","","",""
"869","Set1/068a.jpg","78","image-keyboard-response","342","312454","0.0-3.0-1.169","","","Repeat","n","true"
"null","<div style=""font-size:60px;"">+</div>","null","html-keyboard-response","343","312971","0.0-3.0-0.170","","fixation","","",""
"842","Set1/137a.jpg","78","image-keyboard-response","344","313822","0.0-3.0-1.170","","","Update","n","true"
"null","<div style=""font-size:60px;"">+</div>","null","html-keyboard-response","345","314330","0.0-3.0-0.171","","fixation","","",""
"748","Set1/097a.jpg","79","image-keyboard-response","346","315086","0.0-3.0-1.171","","","Update","o","true"
"null","<div style=""font-size:60px;"">+</div>","null","html-keyboard-response","347","315596","0.0-3.0-0.172","","fixation","","",""
"763","Set1/147a.jpg","78","image-keyboard-response","348","316366","0.0-3.0-1.172","","","Update","n","true"
"null","<div style=""font-size:60px;"">+</div>","null","html-keyboard-response","349","316879","0.0-3.0-0.173","","fixation","","",""
"847","Set1/155a.jpg","79","image-keyboard-response","350","317734","0.0-3.0-1.173","","","Update","o","true"
"null","<div style=""font-size:60px;"">+</div>","null","html-keyboard-response","351","318238","0.0-3.0-0.174","","fixation","","",""
"929","Set1/002a.jpg","78","image-keyboard-response","352","319173","0.0-3.0-1.174","","","Set_1_Only","n","true"
"null","<div style=""font-size:60px;"">+</div>","null","html-keyboard-response","353","319676","0.0-3.0-0.175","","fixation","","",""
"916","Set1/033a.jpg","78","image-keyboard-response","354","320598","0.0-3.0-1.175","","","Repeat","n","true"
"null","<div style=""font-size:60px;"">+</div>","null","html-keyboard-response","355","321129","0.0-3.0-0.176","","fixation","","",""
"952","Set1/102a.jpg","78","image-keyboard-response","356","322086","0.0-3.0-1.176","","","Update","n","true"
"null","<div style=""font-size:60px;"">+</div>","null","html-keyboard-response","357","322598","0.0-3.0-0.177","","fixation","","",""
"809","Set1/057a.jpg","78","image-keyboard-response","358","323414","0.0-3.0-1.177","","","Repeat","n","true"
"null","<div style=""font-size:60px;"">+</div>","null","html-keyboard-response","359","323926","0.0-3.0-0.178","","fixation","","",""
"916","Set1/147a.jpg","79","image-keyboard-response","360","324846","0.0-3.0-1.178","","","Update","o","true"
"null","<div style=""font-size:60px;"">+</div>","null","html-keyboard-response","361","325363","0.0-3.0-0.179","","fixation","","",""
"1185","Set1/057a.jpg","79","image-keyboard-response","362","326550","0.0-3.0-1.179","","","Repeat","o","true"
"null","<div style=""font-size:60px;"">+</div>","null","html-keyboard-response","363","327067","0.0-3.0-0.180","","fixation","","",""
"852","Set1/131a.jpg","78","image-keyboard-response","364","327926","0.0-3.0-1.180","","","Update","n","true"
"null","<div style=""font-size:60px;"">+</div>","null","html-keyboard-response","365","328443","0.0-3.0-0.181","","fixation","","",""
"1061","Set1/032a.jpg","78","image-keyboard-response","366","329510","0.0-3.0-1.181","","","Set_1_Only","n","true"
"null","<div style=""font-size:60px;"">+</div>","null","html-keyboard-response","367","330021","0.0-3.0-0.182","","fixation","","",""
"938","Set1/065a.jpg","78","image-keyboard-response","368","330966","0.0-3.0-1.182","","","Repeat","n","true"
"null","<div style=""font-size:60px;"">+</div>","null","html-keyboard-response","369","331490","0.0-3.0-0.183","","fixation","","",""
"823","Set1/149a.jpg","78","image-keyboard-response","370","332318","0.0-3.0-1.183","","","Update","n","true"
"null","<div style=""font-size:60px;"">+</div>","null","html-keyboard-response","371","332834","0.0-3.0-0.184","","fixation","","",""
"908","Set1/065a.jpg","79","image-keyboard-response","372","333742","0.0-3.0-1.184","","","Repeat","o","true"
"null","<div style=""font-size:60px;"">+</div>","null","html-keyboard-response","373","334256","0.0-3.0-0.185","","fixation","","",""
"1039","Set1/089a.jpg","78","image-keyboard-response","374","335302","0.0-3.0-1.185","","","Repeat","n","true"
"null","<div style=""font-size:60px;"">+</div>","null","html-keyboard-response","375","335820","0.0-3.0-0.186","","fixation","","",""
"868","Set1/144a.jpg","78","image-keyboard-response","376","336694","0.0-3.0-1.186","","","Update","n","true"
"null","<div style=""font-size:60px;"">+</div>","null","html-keyboard-response","377","337210","0.0-3.0-0.187","","fixation","","",""
"1085","Set1/069a.jpg","78","image-keyboard-response","378","338302","0.0-3.0-1.187","","","Repeat","n","true"
"null","<div style=""font-size:60px;"">+</div>","null","html-keyboard-response","379","338835","0.0-3.0-0.188","","fixation","","",""
"966","Set1/129a.jpg","78","image-keyboard-response","380","339806","0.0-3.0-1.188","","","Update","n","true"
"null","<div style=""font-size:60px;"">+</div>","null","html-keyboard-response","381","340336","0.0-3.0-0.189","","fixation","","",""
"926","Set1/032a.jpg","79","image-keyboard-response","382","341269","0.0-3.0-1.189","","","Set_1_Only","o","true"
"null","<div style=""font-size:60px;"">+</div>","null","html-keyboard-response","383","341779","0.0-3.0-0.190","","fixation","","",""
"989","Set1/024a.jpg","78","image-keyboard-response","384","342774","0.0-3.0-1.190","","","Set_1_Only","n","true"
"null","<div style=""font-size:60px;"">+</div>","null","html-keyboard-response","385","343290","0.0-3.0-0.191","","fixation","","",""
"887","Set1/078a.jpg","78","image-keyboard-response","386","344182","0.0-3.0-1.191","","","Repeat","n","true"
"null","<div style=""font-size:60px;"">+</div>","null","html-keyboard-response","387","344695","0.0-3.0-0.192","","fixation","","",""
"897","Set1/103a.jpg","78","image-keyboard-response","388","345598","0.0-3.0-1.192","","","Update","n","true"
"null","<div style=""font-size:60px;"">+</div>","null","html-keyboard-response","389","346102","0.0-3.0-0.193","","fixation","","",""
"856","Set1/130a.jpg","79","image-keyboard-response","390","346966","0.0-3.0-1.193","","","Update","o","true"
"null","<div style=""font-size:60px;"">+</div>","null","html-keyboard-response","391","347493","0.0-3.0-0.194","","fixation","","",""
"828","Set1/022a.jpg","78","image-keyboard-response","392","348326","0.0-3.0-1.194","","","Set_1_Only","n","true"
"null","<div style=""font-size:60px;"">+</div>","null","html-keyboard-response","393","348837","0.0-3.0-0.195","","fixation","","",""
"1012","Set1/124a.jpg","78","image-keyboard-response","394","349854","0.0-3.0-1.195","","","Update","n","true"
"null","<div style=""font-size:60px;"">+</div>","null","html-keyboard-response","395","350376","0.0-3.0-0.196","","fixation","","",""
"796","Set1/068a.jpg","79","image-keyboard-response","396","351174","0.0-3.0-1.196","","","Repeat","o","true"
"null","<div style=""font-size:60px;"">+</div>","null","html-keyboard-response","397","351696","0.0-3.0-0.197","","fixation","","",""
"811","Set1/078a.jpg","79","image-keyboard-response","398","352510","0.0-3.0-1.197","","","Repeat","o","true"
"null","<div style=""font-size:60px;"">+</div>","null","html-keyboard-response","399","353038","0.0-3.0-0.198","","fixation","","",""
"957","Set1/137a.jpg","79","image-keyboard-response","400","354000","0.0-3.0-1.198","","","Update","o","true"
"null","<div style=""font-size:60px;"">+</div>","null","html-keyboard-response","401","354512","0.0-3.0-0.199","","fixation","","",""
"975","Set1/118a.jpg","78","image-keyboard-response","402","355494","0.0-3.0-1.199","","","Update","n","true"
"null","<div style=""font-size:60px;"">+</div>","null","html-keyboard-response","403","356012","0.0-3.0-0.200","","fixation","","",""
"863","Set1/149a.jpg","79","image-keyboard-response","404","356878","0.0-3.0-1.200","","","Update","o","true"
"null","<div style=""font-size:60px;"">+</div>","null","html-keyboard-response","405","357385","0.0-3.0-0.201","","fixation","","",""
"904","Set1/002a.jpg","79","image-keyboard-response","406","358293","0.0-3.0-1.201","","","Set_1_Only","o","true"
"null","<div style=""font-size:60px;"">+</div>","null","html-keyboard-response","407","358805","0.0-3.0-0.202","","fixation","","",""
"988","Set1/103a.jpg","79","image-keyboard-response","408","359798","0.0-3.0-1.202","","","Update","o","true"
"null","<div style=""font-size:60px;"">+</div>","null","html-keyboard-response","409","360312","0.0-3.0-0.203","","fixation","","",""
"993","Set1/012a.jpg","78","image-keyboard-response","410","361310","0.0-3.0-1.203","","","Set_1_Only","n","true"
"null","<div style=""font-size:60px;"">+</div>","null","html-keyboard-response","411","361830","0.0-3.0-0.204","","fixation","","",""
"946","Set1/104a.jpg","78","image-keyboard-response","412","362782","0.0-3.0-1.204","","","Update","n","true"
"null","<div style=""font-size:60px;"">+</div>","null","html-keyboard-response","413","363299","0.0-3.0-0.205","","fixation","","",""
"797","Set1/080a.jpg","78","image-keyboard-response","414","364102","0.0-3.0-1.205","","","Repeat","n","true"
"null","<div style=""font-size:60px;"">+</div>","null","html-keyboard-response","415","364629","0.0-3.0-0.206","","fixation","","",""
"870","Set1/040a.jpg","78","image-keyboard-response","416","365510","0.0-3.0-1.206","","","Repeat","n","true"
"null","<div style=""font-size:60px;"">+</div>","null","html-keyboard-response","417","366018","0.0-3.0-0.207","","fixation","","",""
"861","Set1/145a.jpg","78","image-keyboard-response","418","366886","0.0-3.0-1.207","","","Update","n","true"
"null","<div style=""font-size:60px;"">+</div>","null","html-keyboard-response","419","367393","0.0-3.0-0.208","","fixation","","",""
"794","Set1/004a.jpg","79","image-keyboard-response","420","368190","0.0-3.0-1.208","","","Set_1_Only","o","true"
"null","<div style=""font-size:60px;"">+</div>","null","html-keyboard-response","421","368707","0.0-3.0-0.209","","fixation","","",""
"893","Set1/073a.jpg","78","image-keyboard-response","422","369605","0.0-3.0-1.209","","","Repeat","n","true"
"null","<div style=""font-size:60px;"">+</div>","null","html-keyboard-response","423","370112","0.0-3.0-0.210","","fixation","","",""
"949","Set1/144a.jpg","79","image-keyboard-response","424","371070","0.0-3.0-1.210","","","Update","o","true"
"null","<div style=""font-size:60px;"">+</div>","null","html-keyboard-response","425","371581","0.0-3.0-0.211","","fixation","","",""
"1101","Set1/145a.jpg","78","image-keyboard-response","426","372685","0.0-3.0-1.211","","","Update","o","false"
"null","<div style=""font-size:60px;"">+</div>","null","html-keyboard-response","427","373191","0.0-3.0-0.212","","fixation","","",""
"827","Set1/124a.jpg","79","image-keyboard-response","428","374022","0.0-3.0-1.212","","","Update","o","true"
"null","<div style=""font-size:60px;"">+</div>","null","html-keyboard-response","429","374535","0.0-3.0-0.213","","fixation","","",""
"774","Set1/040a.jpg","79","image-keyboard-response","430","375318","0.0-3.0-1.213","","","Repeat","o","true"
"null","<div style=""font-size:60px;"">+</div>","null","html-keyboard-response","431","375832","0.0-3.0-0.214","","fixation","","",""
"947","Set1/069a.jpg","79","image-keyboard-response","432","376790","0.0-3.0-1.214","","","Repeat","o","true"
"null","<div style=""font-size:60px;"">+</div>","null","html-keyboard-response","433","377312","0.0-3.0-0.215","","fixation","","",""
"967","Set1/143a.jpg","78","image-keyboard-response","434","378286","0.0-3.0-1.215","","","Update","n","true"
"null","<div style=""font-size:60px;"">+</div>","null","html-keyboard-response","435","378801","0.0-3.0-0.216","","fixation","","",""
"924","Set1/024a.jpg","79","image-keyboard-response","436","379734","0.0-3.0-1.216","","","Set_1_Only","o","true"
"null","<div style=""font-size:60px;"">+</div>","null","html-keyboard-response","437","380239","0.0-3.0-0.217","","fixation","","",""
"848","Set1/131a.jpg","79","image-keyboard-response","438","381094","0.0-3.0-1.217","","","Update","o","true"
"null","<div style=""font-size:60px;"">+</div>","null","html-keyboard-response","439","381602","0.0-3.0-0.218","","fixation","","",""
"1236","Set1/094a.jpg","78","image-keyboard-response","440","382846","0.0-3.0-1.218","","","Repeat","n","true"
"null","<div style=""font-size:60px;"">+</div>","null","html-keyboard-response","441","383350","0.0-3.0-0.219","","fixation","","",""
"892","Set1/104a.jpg","79","image-keyboard-response","442","384245","0.0-3.0-1.219","","","Update","o","true"
"null","<div style=""font-size:60px;"">+</div>","null","html-keyboard-response","443","384762","0.0-3.0-0.220","","fixation","","",""
"807","Set1/080a.jpg","79","image-keyboard-response","444","385573","0.0-3.0-1.220","","","Repeat","o","true"
"null","<div style=""font-size:60px;"">+</div>","null","html-keyboard-response","445","386084","0.0-3.0-0.221","","fixation","","",""
"801","Set1/060a.jpg","79","image-keyboard-response","446","386894","0.0-3.0-1.221","","","Repeat","o","true"
"null","<div style=""font-size:60px;"">+</div>","null","html-keyboard-response","447","387413","0.0-3.0-0.222","","fixation","","",""
"1081","Set1/129a.jpg","79","image-keyboard-response","448","388502","0.0-3.0-1.222","","","Update","o","true"
"null","<div style=""font-size:60px;"">+</div>","null","html-keyboard-response","449","389007","0.0-3.0-0.223","","fixation","","",""
"774","Set1/089a.jpg","79","image-keyboard-response","450","389788","0.0-3.0-1.223","","","Repeat","o","true"
"null","<div style=""font-size:60px;"">+</div>","null","html-keyboard-response","451","390303","0.0-3.0-0.224","","fixation","","",""
"791","Set1/159a.jpg","79","image-keyboard-response","452","391102","0.0-3.0-1.224","","","Update","o","true"
"null","<div style=""font-size:60px;"">+</div>","null","html-keyboard-response","453","391629","0.0-3.0-0.225","","fixation","","",""
"923","Set1/135a.jpg","78","image-keyboard-response","454","392558","0.0-3.0-1.225","","","Update","n","true"
"null","<div style=""font-size:60px;"">+</div>","null","html-keyboard-response","455","393070","0.0-3.0-0.226","","fixation","","",""
"810","Set1/116a.jpg","78","image-keyboard-response","456","393886","0.0-3.0-1.226","","","Update","n","true"
"null","<div style=""font-size:60px;"">+</div>","null","html-keyboard-response","457","394398","0.0-3.0-0.227","","fixation","","",""
"1384","Set1/102a.jpg","79","image-keyboard-response","458","395790","0.0-3.0-1.227","","","Update","o","true"
"null","<div style=""font-size:60px;"">+</div>","null","html-keyboard-response","459","396305","0.0-3.0-0.228","","fixation","","",""
"828","Set1/022a.jpg","79","image-keyboard-response","460","397142","0.0-3.0-1.228","","","Set_1_Only","o","true"
"null","<div style=""font-size:60px;"">+</div>","null","html-keyboard-response","461","397664","0.0-3.0-0.229","","fixation","","",""
"846","Set1/094a.jpg","79","image-keyboard-response","462","398518","0.0-3.0-1.229","","","Repeat","o","true"
"null","<div style=""font-size:60px;"">+</div>","null","html-keyboard-response","463","399029","0.0-3.0-0.230","","fixation","","",""
"1272","Set1/118a.jpg","79","image-keyboard-response","464","400310","0.0-3.0-1.230","","","Update","o","true"
"null","<div style=""font-size:60px;"">+</div>","null","html-keyboard-response","465","400821","0.0-3.0-0.231","","fixation","","",""
"844","Set1/033a.jpg","79","image-keyboard-response","466","401669","0.0-3.0-1.231","","","Repeat","o","true"
"null","<div style=""font-size:60px;"">+</div>","null","html-keyboard-response","467","402178","0.0-3.0-0.232","","fixation","","",""
"832","Set1/117a.jpg","79","image-keyboard-response","468","403022","0.0-3.0-1.232","","","Update","o","true"
"null","<div style=""font-size:60px;"">+</div>","null","html-keyboard-response","469","403540","0.0-3.0-0.233","","fixation","","",""
"1421","Set1/135a.jpg","79","image-keyboard-response","470","404964","0.0-3.0-1.233","","","Update","o","true"
"null","<div style=""font-size:60px;"">+</div>","null","html-keyboard-response","471","405477","0.0-3.0-0.234","","fixation","","",""
"736","Set1/116a.jpg","79","image-keyboard-response","472","406222","0.0-3.0-1.234","","","Update","o","true"
"null","<div style=""font-size:60px;"">+</div>","null","html-keyboard-response","473","406729","0.0-3.0-0.235","","fixation","","",""
"750","Set1/143a.jpg","79","image-keyboard-response","474","407486","0.0-3.0-1.235","","","Update","o","true"
"null","<div style=""font-size:60px;"">+</div>","null","html-keyboard-response","475","408010","0.0-3.0-0.236","","fixation","","",""
"876","Set1/074a.jpg","79","image-keyboard-response","476","408893","0.0-3.0-1.236","","","Repeat","o","true"
"null","<div style=""font-size:60px;"">+</div>","null","html-keyboard-response","477","409400","0.0-3.0-0.237","","fixation","","",""
"910","Set1/012a.jpg","79","image-keyboard-response","478","410317","0.0-3.0-1.237","","","Set_1_Only","o","true"
"null","<div style=""font-size:60px;"">+</div>","null","html-keyboard-response","479","410822","0.0-3.0-0.238","","fixation","","",""
"712","Set1/062a.jpg","79","image-keyboard-response","480","411542","0.0-3.0-1.238","","","Repeat","o","true"
"null","<div style=""font-size:60px;"">+</div>","null","html-keyboard-response","481","412058","0.0-3.0-0.239","","fixation","","",""
"780","Set1/073a.jpg","79","image-keyboard-response","482","412845","0.0-3.0-1.239","","","Repeat","o","true"
"null","<div style=""font-size:60px;"">+</div>","null","html-keyboard-response","483","413362","0.0-3.0-0.240","","fixation","","",""
"1190","Set1/029a.jpg","78","image-keyboard-response","484","414557","0.0-3.0-1.240","","","Set_1_Only","n","true"
"null","<div style=""font-size:60px;"">+</div>","null","html-keyboard-response","485","415073","0.0-3.0-0.241","","fixation","","",""
"838","Set1/098a.jpg","78","image-keyboard-response","486","415918","0.0-3.0-1.241","","","Update","n","true"
"null","<div style=""font-size:60px;"">+</div>","null","html-keyboard-response","487","416432","0.0-3.0-0.242","","fixation","","",""
"846","Set1/086a.jpg","78","image-keyboard-response","488","417285","0.0-3.0-1.242","","","Repeat","n","true"
"null","<div style=""font-size:60px;"">+</div>","null","html-keyboard-response","489","417808","0.0-3.0-0.243","","fixation","","",""
"902","Set1/070a.jpg","78","image-keyboard-response","490","418717","0.0-3.0-1.243","","","Repeat","n","true"
"null","<div style=""font-size:60px;"">+</div>","null","html-keyboard-response","491","419230","0.0-3.0-0.244","","fixation","","",""
"913","Set1/091a.jpg","78","image-keyboard-response","492","420149","0.0-3.0-1.244","","","Repeat","n","true"
"null","<div style=""font-size:60px;"">+</div>","null","html-keyboard-response","493","420668","0.0-3.0-0.245","","fixation","","",""
"852","Set1/043a.jpg","78","image-keyboard-response","494","421526","0.0-3.0-1.245","","","Repeat","n","true"
"null","<div style=""font-size:60px;"">+</div>","null","html-keyboard-response","495","422059","0.0-3.0-0.246","","fixation","","",""
"709","Set1/083a.jpg","78","image-keyboard-response","496","422773","0.0-3.0-1.246","","","Repeat","n","true"
"null","<div style=""font-size:60px;"">+</div>","null","html-keyboard-response","497","423294","0.0-3.0-0.247","","fixation","","",""
"785","Set1/011a.jpg","78","image-keyboard-response","498","424084","0.0-3.0-1.247","","","Set_1_Only","n","true"
"null","<div style=""font-size:60px;"">+</div>","null","html-keyboard-response","499","424605","0.0-3.0-0.248","","fixation","","",""
"777","Set1/142a.jpg","78","image-keyboard-response","500","425388","0.0-3.0-1.248","","","Update","n","true"
"null","<div style=""font-size:60px;"">+</div>","null","html-keyboard-response","501","425902","0.0-3.0-0.249","","fixation","","",""
"760","Set1/061a.jpg","78","image-keyboard-response","502","426670","0.0-3.0-1.249","","","Repeat","n","true"
"null","<div style=""font-size:60px;"">+</div>","null","html-keyboard-response","503","427185","0.0-3.0-0.250","","fixation","","",""
"824","Set1/007a.jpg","78","image-keyboard-response","504","428014","0.0-3.0-1.250","","","Set_1_Only","n","true"
"null","<div style=""font-size:60px;"">+</div>","null","html-keyboard-response","505","428529","0.0-3.0-0.251","","fixation","","",""
"805","Set1/039a.jpg","78","image-keyboard-response","506","429342","0.0-3.0-1.251","","","Repeat","n","true"
"null","<div style=""font-size:60px;"">+</div>","null","html-keyboard-response","507","429873","0.0-3.0-0.252","","fixation","","",""
"1343","Set1/023a.jpg","78","image-keyboard-response","508","431221","0.0-3.0-1.252","","","Set_1_Only","n","true"
"null","<div style=""font-size:60px;"">+</div>","null","html-keyboard-response","509","431747","0.0-3.0-0.253","","fixation","","",""
"811","Set1/001a.jpg","78","image-keyboard-response","510","432566","0.0-3.0-1.253","","","Set_1_Only","n","true"
"null","<div style=""font-size:60px;"">+</div>","null","html-keyboard-response","511","433076","0.0-3.0-0.254","","fixation","","",""
"764","Set1/038a.jpg","78","image-keyboard-response","512","433845","0.0-3.0-1.254","","","Repeat","n","true"
"null","<div style=""font-size:60px;"">+</div>","null","html-keyboard-response","513","434358","0.0-3.0-0.255","","fixation","","",""
"825","Set1/126a.jpg","78","image-keyboard-response","514","435189","0.0-3.0-1.255","","","Update","n","true"
"null","<div style=""font-size:60px;"">+</div>","null","html-keyboard-response","515","435701","0.0-3.0-0.256","","fixation","","",""
"911","Set1/021a.jpg","78","image-keyboard-response","516","436621","0.0-3.0-1.256","","","Set_1_Only","n","true"
"null","<div style=""font-size:60px;"">+</div>","null","html-keyboard-response","517","437139","0.0-3.0-0.257","","fixation","","",""
"884","Set1/109a.jpg","78","image-keyboard-response","518","438030","0.0-3.0-1.257","","","Update","n","true"
"null","<div style=""font-size:60px;"">+</div>","null","html-keyboard-response","519","438546","0.0-3.0-0.258","","fixation","","",""
"925","Set1/099a.jpg","78","image-keyboard-response","520","439478","0.0-3.0-1.258","","","Update","n","true"
"null","<div style=""font-size:60px;"">+</div>","null","html-keyboard-response","521","439984","0.0-3.0-0.259","","fixation","","",""
"784","Set1/122a.jpg","78","image-keyboard-response","522","440774","0.0-3.0-1.259","","","Update","n","true"
"null","<div style=""font-size:60px;"">+</div>","null","html-keyboard-response","523","441297","0.0-3.0-0.260","","fixation","","",""
"876","Set1/023a.jpg","79","image-keyboard-response","524","442182","0.0-3.0-1.260","","","Set_1_Only","o","true"
"null","<div style=""font-size:60px;"">+</div>","null","html-keyboard-response","525","442687","0.0-3.0-0.261","","fixation","","",""
"840","Set1/017a.jpg","78","image-keyboard-response","526","443533","0.0-3.0-1.261","","","Set_1_Only","n","true"
"null","<div style=""font-size:60px;"">+</div>","null","html-keyboard-response","527","444050","0.0-3.0-0.262","","fixation","","",""
"1004","Set1/132a.jpg","78","image-keyboard-response","528","445062","0.0-3.0-1.262","","","Update","n","true"
"null","<div style=""font-size:60px;"">+</div>","null","html-keyboard-response","529","445594","0.0-3.0-0.263","","fixation","","",""
"868","Set1/042a.jpg","78","image-keyboard-response","530","446469","0.0-3.0-1.263","","","Repeat","n","true"
"null","<div style=""font-size:60px;"">+</div>","null","html-keyboard-response","531","446985","0.0-3.0-0.264","","fixation","","",""
"942","Set1/087a.jpg","78","image-keyboard-response","532","447933","0.0-3.0-1.264","","","Repeat","n","true"
"null","<div style=""font-size:60px;"">+</div>","null","html-keyboard-response","533","448438","0.0-3.0-0.265","","fixation","","",""
"896","Set1/101a.jpg","78","image-keyboard-response","534","449340","0.0-3.0-1.265","","","Update","n","true"
"null","<div style=""font-size:60px;"">+</div>","null","html-keyboard-response","535","449852","0.0-3.0-0.266","","fixation","","",""
"771","Set1/066a.jpg","78","image-keyboard-response","536","450629","0.0-3.0-1.266","","","Repeat","n","true"
"null","<div style=""font-size:60px;"">+</div>","null","html-keyboard-response","537","451155","0.0-3.0-0.267","","fixation","","",""
"797","Set1/091a.jpg","79","image-keyboard-response","538","451957","0.0-3.0-1.267","","","Repeat","o","true"
"null","<div style=""font-size:60px;"">+</div>","null","html-keyboard-response","539","452464","0.0-3.0-0.268","","fixation","","",""
"894","Set1/077a.jpg","78","image-keyboard-response","540","453366","0.0-3.0-1.268","","","Repeat","n","true"
"null","<div style=""font-size:60px;"">+</div>","null","html-keyboard-response","541","453886","0.0-3.0-0.269","","fixation","","",""
"992","Set1/042a.jpg","79","image-keyboard-response","542","454885","0.0-3.0-1.269","","","Repeat","o","true"
"null","<div style=""font-size:60px;"">+</div>","null","html-keyboard-response","543","455407","0.0-3.0-0.270","","fixation","","",""
"864","Set1/018a.jpg","78","image-keyboard-response","544","456277","0.0-3.0-1.270","","","Set_1_Only","n","true"
"null","<div style=""font-size:60px;"">+</div>","null","html-keyboard-response","545","456782","0.0-3.0-0.271","","fixation","","",""
"1041","Set1/058a.jpg","78","image-keyboard-response","546","457829","0.0-3.0-1.271","","","Repeat","n","true"
"null","<div style=""font-size:60px;"">+</div>","null","html-keyboard-response","547","458348","0.0-3.0-0.272","","fixation","","",""
"864","Set1/132a.jpg","79","image-keyboard-response","548","459221","0.0-3.0-1.272","","","Update","o","true"
"null","<div style=""font-size:60px;"">+</div>","null","html-keyboard-response","549","459749","0.0-3.0-0.273","","fixation","","",""
"872","Set1/038a.jpg","79","image-keyboard-response","550","460630","0.0-3.0-1.273","","","Repeat","o","true"
"null","<div style=""font-size:60px;"">+</div>","null","html-keyboard-response","551","461155","0.0-3.0-0.274","","fixation","","",""
"842","Set1/066a.jpg","79","image-keyboard-response","552","462005","0.0-3.0-1.274","","","Repeat","o","true"
"null","<div style=""font-size:60px;"">+</div>","null","html-keyboard-response","553","462516","0.0-3.0-0.275","","fixation","","",""
"902","Set1/099a.jpg","79","image-keyboard-response","554","463421","0.0-3.0-1.275","","","Update","o","true"
"null","<div style=""font-size:60px;"">+</div>","null","html-keyboard-response","555","463937","0.0-3.0-0.276","","fixation","","",""
"712","Set1/126a.jpg","79","image-keyboard-response","556","464653","0.0-3.0-1.276","","","Update","o","true"
"null","<div style=""font-size:60px;"">+</div>","null","html-keyboard-response","557","465172","0.0-3.0-0.277","","fixation","","",""
"1059","Set1/009a.jpg","78","image-keyboard-response","558","466237","0.0-3.0-1.277","","","Set_1_Only","n","true"
"null","<div style=""font-size:60px;"">+</div>","null","html-keyboard-response","559","466750","0.0-3.0-0.278","","fixation","","",""
"784","Set1/046a.jpg","78","image-keyboard-response","560","467541","0.0-3.0-1.278","","","Repeat","n","true"
"null","<div style=""font-size:60px;"">+</div>","null","html-keyboard-response","561","468047","0.0-3.0-0.279","","fixation","","",""
"676","Set1/039a.jpg","79","image-keyboard-response","562","468732","0.0-3.0-1.279","","","Repeat","o","true"
"null","<div style=""font-size:60px;"">+</div>","null","html-keyboard-response","563","469236","0.0-3.0-0.280","","fixation","","",""
"782","Set1/001a.jpg","79","image-keyboard-response","564","470021","0.0-3.0-1.280","","","Set_1_Only","o","true"
"null","<div style=""font-size:60px;"">+</div>","null","html-keyboard-response","565","470533","0.0-3.0-0.281","","fixation","","",""
"694","Set1/122a.jpg","79","image-keyboard-response","566","471229","0.0-3.0-1.281","","","Update","o","true"
"null","<div style=""font-size:60px;"">+</div>","null","html-keyboard-response","567","471736","0.0-3.0-0.282","","fixation","","",""
"759","Set1/086a.jpg","79","image-keyboard-response","568","472502","0.0-3.0-1.282","","","Repeat","o","true"
"null","<div style=""font-size:60px;"">+</div>","null","html-keyboard-response","569","473017","0.0-3.0-0.283","","fixation","","",""
"832","Set1/046a.jpg","79","image-keyboard-response","570","473853","0.0-3.0-1.283","","","Repeat","o","true"
"null","<div style=""font-size:60px;"">+</div>","null","html-keyboard-response","571","474361","0.0-3.0-0.284","","fixation","","",""
"788","Set1/043a.jpg","79","image-keyboard-response","572","475157","0.0-3.0-1.284","","","Repeat","o","true"
"null","<div style=""font-size:60px;"">+</div>","null","html-keyboard-response","573","475675","0.0-3.0-0.285","","fixation","","",""
"1069","Set1/016a.jpg","78","image-keyboard-response","574","476749","0.0-3.0-1.285","","","Set_1_Only","n","true"
"null","<div style=""font-size:60px;"">+</div>","null","html-keyboard-response","575","477268","0.0-3.0-0.286","","fixation","","",""
"859","Set1/090a.jpg","78","image-keyboard-response","576","478133","0.0-3.0-1.286","","","Repeat","n","true"
"null","<div style=""font-size:60px;"">+</div>","null","html-keyboard-response","577","478643","0.0-3.0-0.287","","fixation","","",""
"884","Set1/141a.jpg","78","image-keyboard-response","578","479533","0.0-3.0-1.287","","","Update","n","true"
"null","<div style=""font-size:60px;"">+</div>","null","html-keyboard-response","579","480049","0.0-3.0-0.288","","fixation","","",""
"1289","Set1/090a.jpg","79","image-keyboard-response","580","481342","0.0-3.0-1.288","","","Repeat","o","true"
"null","<div style=""font-size:60px;"">+</div>","null","html-keyboard-response","581","481850","0.0-3.0-0.289","","fixation","","",""
"932","Set1/139a.jpg","78","image-keyboard-response","582","482790","0.0-3.0-1.289","","","Update","n","true"
"null","<div style=""font-size:60px;"">+</div>","null","html-keyboard-response","583","483311","0.0-3.0-0.290","","fixation","","",""
"908","Set1/101a.jpg","79","image-keyboard-response","584","484229","0.0-3.0-1.290","","","Update","o","true"
"null","<div style=""font-size:60px;"">+</div>","null","html-keyboard-response","585","484737","0.0-3.0-0.291","","fixation","","",""
"946","Set1/092a.jpg","78","image-keyboard-response","586","485693","0.0-3.0-1.291","","","Repeat","n","true"
"null","<div style=""font-size:60px;"">+</div>","null","html-keyboard-response","587","486211","0.0-3.0-0.292","","fixation","","",""
"827","Set1/087a.jpg","79","image-keyboard-response","588","487045","0.0-3.0-1.292","","","Repeat","o","true"
"null","<div style=""font-size:60px;"">+</div>","null","html-keyboard-response","589","487562","0.0-3.0-0.293","","fixation","","",""
"1141","Set1/034a.jpg","78","image-keyboard-response","590","488709","0.0-3.0-1.293","","","Repeat","n","true"
"null","<div style=""font-size:60px;"">+</div>","null","html-keyboard-response","591","489223","0.0-3.0-0.294","","fixation","","",""
"907","Set1/153a.jpg","78","image-keyboard-response","592","490133","0.0-3.0-1.294","","","Update","n","true"
"null","<div style=""font-size:60px;"">+</div>","null","html-keyboard-response","593","490661","0.0-3.0-0.295","","fixation","","",""
"1172","Set1/092a.jpg","79","image-keyboard-response","594","491838","0.0-3.0-1.295","","","Repeat","o","true"
"null","<div style=""font-size:60px;"">+</div>","null","html-keyboard-response","595","492361","0.0-3.0-0.296","","fixation","","",""
"844","Set1/077a.jpg","79","image-keyboard-response","596","493214","0.0-3.0-1.296","","","Repeat","o","true"
"null","<div style=""font-size:60px;"">+</div>","null","html-keyboard-response","597","493723","0.0-3.0-0.297","","fixation","","",""
"899","Set1/112a.jpg","78","image-keyboard-response","598","494630","0.0-3.0-1.297","","","Update","n","true"
"null","<div style=""font-size:60px;"">+</div>","null","html-keyboard-response","599","495146","0.0-3.0-0.298","","fixation","","",""
"985","Set1/018a.jpg","79","image-keyboard-response","600","496140","0.0-3.0-1.298","","","Set_1_Only","o","true"
"null","<div style=""font-size:60px;"">+</div>","null","html-keyboard-response","601","496646","0.0-3.0-0.299","","fixation","","",""
"1135","Set1/139a.jpg","79","image-keyboard-response","602","497789","0.0-3.0-1.299","","","Update","o","true"
"null","<div style=""font-size:60px;"">+</div>","null","html-keyboard-response","603","498318","0.0-3.0-0.300","","fixation","","",""
"932","Set1/153a.jpg","79","image-keyboard-response","604","499253","0.0-3.0-1.300","","","Update","o","true"
"null","<div style=""font-size:60px;"">+</div>","null","html-keyboard-response","605","499761","0.0-3.0-0.301","","fixation","","",""
"836","Set1/017a.jpg","79","image-keyboard-response","606","500606","0.0-3.0-1.301","","","Set_1_Only","o","true"
"null","<div style=""font-size:60px;"">+</div>","null","html-keyboard-response","607","501115","0.0-3.0-0.302","","fixation","","",""
"906","Set1/112a.jpg","79","image-keyboard-response","608","502029","0.0-3.0-1.302","","","Update","o","true"
"null","<div style=""font-size:60px;"">+</div>","null","html-keyboard-response","609","502538","0.0-3.0-0.303","","fixation","","",""
"731","Set1/109a.jpg","79","image-keyboard-response","610","503277","0.0-3.0-1.303","","","Update","o","true"
"null","<div style=""font-size:60px;"">+</div>","null","html-keyboard-response","611","503804","0.0-3.0-0.304","","fixation","","",""
"761","Set1/021a.jpg","79","image-keyboard-response","612","504573","0.0-3.0-1.304","","","Set_1_Only","o","true"
"null","<div style=""font-size:60px;"">+</div>","null","html-keyboard-response","613","505085","0.0-3.0-0.305","","fixation","","",""
"704","Set1/142a.jpg","79","image-keyboard-response","614","505797","0.0-3.0-1.305","","","Update","o","true"
"null","<div style=""font-size:60px;"">+</div>","null","html-keyboard-response","615","506319","0.0-3.0-0.306","","fixation","","",""
"967","Set1/113a.jpg","78","image-keyboard-response","616","507293","0.0-3.0-1.306","","","Update","n","true"
"null","<div style=""font-size:60px;"">+</div>","null","html-keyboard-response","617","507804","0.0-3.0-0.307","","fixation","","",""
"889","Set1/016a.jpg","79","image-keyboard-response","618","508701","0.0-3.0-1.307","","","Set_1_Only","o","true"
"null","<div style=""font-size:60px;"">+</div>","null","html-keyboard-response","619","509226","0.0-3.0-0.308","","fixation","","",""
"707","Set1/061a.jpg","79","image-keyboard-response","620","509941","0.0-3.0-1.308","","","Repeat","o","true"
"null","<div style=""font-size:60px;"">+</div>","null","html-keyboard-response","621","510445","0.0-3.0-0.309","","fixation","","",""
"766","Set1/009a.jpg","79","image-keyboard-response","622","511221","0.0-3.0-1.309","","","Set_1_Only","o","true"
"null","<div style=""font-size:60px;"">+</div>","null","html-keyboard-response","623","511726","0.0-3.0-0.310","","fixation","","",""
"831","Set1/141a.jpg","79","image-keyboard-response","624","512565","0.0-3.0-1.310","","","Update","o","true"
"null","<div style=""font-size:60px;"">+</div>","null","html-keyboard-response","625","513086","0.0-3.0-0.311","","fixation","","",""
"776","Set1/011a.jpg","79","image-keyboard-response","626","513869","0.0-3.0-1.311","","","Set_1_Only","o","true"
"null","<div style=""font-size:60px;"">+</div>","null","html-keyboard-response","627","514383","0.0-3.0-0.312","","fixation","","",""
"713","Set1/113a.jpg","79","image-keyboard-response","628","515101","0.0-3.0-1.312","","","Update","o","true"
"null","<div style=""font-size:60px;"">+</div>","null","html-keyboard-response","629","515628","0.0-3.0-0.313","","fixation","","",""
"848","Set1/058a.jpg","79","image-keyboard-response","630","516485","0.0-3.0-1.313","","","Repeat","o","true"
"null","<div style=""font-size:60px;"">+</div>","null","html-keyboard-response","631","516994","0.0-3.0-0.314","","fixation","","",""
"899","Set1/083a.jpg","79","image-keyboard-response","632","517902","0.0-3.0-1.314","","","Repeat","o","true"
"null","<div style=""font-size:60px;"">+</div>","null","html-keyboard-response","633","518416","0.0-3.0-0.315","","fixation","","",""
"868","Set1/029a.jpg","79","image-keyboard-response","634","519293","0.0-3.0-1.315","","","Set_1_Only","o","true"
"null","<div style=""font-size:60px;"">+</div>","null","html-keyboard-response","635","519806","0.0-3.0-0.316","","fixation","","",""
"804","Set1/034a.jpg","79","image-keyboard-response","636","520613","0.0-3.0-1.316","","","Repeat","o","true"
"null","<div style=""font-size:60px;"">+</div>","null","html-keyboard-response","637","521119","0.0-3.0-0.317","","fixation","","",""
"686","Set1/070a.jpg","79","image-keyboard-response","638","521814","0.0-3.0-1.317","","","Repeat","o","true"
"null","<div style=""font-size:60px;"">+</div>","null","html-keyboard-response","639","522323","0.0-3.0-0.318","","fixation","","",""
"866","Set1/098a.jpg","79","image-keyboard-response","640","523197","0.0-3.0-1.318","","","Update","o","true"
"null","<div style=""font-size:60px;"">+</div>","null","html-keyboard-response","641","523713","0.0-3.0-0.319","","fixation","","",""
"780","Set1/007a.jpg","79","image-keyboard-response","642","524501","0.0-3.0-1.319","","","Set_1_Only","o","true"
