"rt","stimulus","key_press","trial_type","trial_index","time_elapsed","internal_node_id","responses","test_part","stim_type","correct_response","correct"
"10449","Press any key to begin.","78","html-keyboard-response","0","10528","0.0-0.0","","","","",""
"7928","","","survey-text","1","18461","0.0-1.0","{""Q0"":"" Set2_128715"",""Q1"":"" Set2_128715""}","","","",""
"5690","<p>In this experiment you will see a series of everyday objects presented one at a time at the center of the screen. Each image will be presented twice.</p><p>The first time you see the image, press the N key to indicat that it is a NEW image. The second time you see the image, press the O key to indicate that it is an OLD image.</p><p>Some of the images will be repeats from the first session of this task you did yesterday. I want you to treat those images as 'OLD' if you remember seeing them before. Some of the images will be very similar but not identical to an image that you have seen in the previous set. I want you to treat those images as 'NEW' the first time you see them and 'OLD' the second time.</p><div style='width: 700px;'></div><p>Press any key to begin.</p>","79","html-keyboard-response","2","24152","0.0-2.0","","","","",""
"null","<div style=""font-size:60px;"">+</div>","null","html-keyboard-response","3","26658","0.0-3.0-0.0","","fixation","","",""
"2851","Set1/037a.jpg","78","image-keyboard-response","4","29513","0.0-3.0-1.0","","","Repeat","n","true"
"null","<div style=""font-size:60px;"">+</div>","null","html-keyboard-response","5","30016","0.0-3.0-0.1","","fixation","","",""
"2841","Set1/095a.jpg","78","image-keyboard-response","6","32857","0.0-3.0-1.1","","","Repeat","n","true"
"null","<div style=""font-size:60px;"">+</div>","null","html-keyboard-response","7","33359","0.0-3.0-0.2","","fixation","","",""
"2079","Set1/080a.jpg","78","image-keyboard-response","8","35440","0.0-3.0-1.2","","","Repeat","n","true"
"null","<div style=""font-size:60px;"">+</div>","null","html-keyboard-response","9","35942","0.0-3.0-0.3","","fixation","","",""
"938","Set1/142b.jpg","78","image-keyboard-response","10","36881","0.0-3.0-1.3","","","Update","n","true"
"null","<div style=""font-size:60px;"">+</div>","null","html-keyboard-response","11","37383","0.0-3.0-0.4","","fixation","","",""
"2860","Set1/179a.jpg","78","image-keyboard-response","12","40244","0.0-3.0-1.4","","","Set_2_Only","n","true"
"null","<div style=""font-size:60px;"">+</div>","null","html-keyboard-response","13","40746","0.0-3.0-0.5","","fixation","","",""
"1640","Set1/039a.jpg","79","image-keyboard-response","14","42388","0.0-3.0-1.5","","","Repeat","n","false"
"null","<div style=""font-size:60px;"">+</div>","null","html-keyboard-response","15","42891","0.0-3.0-0.6","","fixation","","",""
"1304","Set1/172a.jpg","78","image-keyboard-response","16","44197","0.0-3.0-1.6","","","Set_2_Only","n","true"
"null","<div style=""font-size:60px;"">+</div>","null","html-keyboard-response","17","44699","0.0-3.0-0.7","","fixation","","",""
"1199","Set1/075a.jpg","78","image-keyboard-response","18","45900","0.0-3.0-1.7","","","Repeat","n","true"
"null","<div style=""font-size:60px;"">+</div>","null","html-keyboard-response","19","46401","0.0-3.0-0.8","","fixation","","",""
"1610","Set1/090a.jpg","78","image-keyboard-response","20","48012","0.0-3.0-1.8","","","Repeat","n","true"
"null","<div style=""font-size:60px;"">+</div>","null","html-keyboard-response","21","48515","0.0-3.0-0.9","","fixation","","",""
"1328","Set1/148b.jpg","78","image-keyboard-response","22","49845","0.0-3.0-1.9","","","Update","n","true"
"null","<div style=""font-size:60px;"">+</div>","null","html-keyboard-response","23","50348","0.0-3.0-0.10","","fixation","","",""
"859","Set1/172a.jpg","79","image-keyboard-response","24","51209","0.0-3.0-1.10","","","Set_2_Only","o","true"
"null","<div style=""font-size:60px;"">+</div>","null","html-keyboard-response","25","51712","0.0-3.0-0.11","","fixation","","",""
"972","Set1/035a.jpg","78","image-keyboard-response","26","52685","0.0-3.0-1.11","","","Repeat","n","true"
"null","<div style=""font-size:60px;"">+</div>","null","html-keyboard-response","27","53188","0.0-3.0-0.12","","fixation","","",""
"1051","Set1/170a.jpg","78","image-keyboard-response","28","54239","0.0-3.0-1.12","","","Set_2_Only","n","true"
"null","<div style=""font-size:60px;"">+</div>","null","html-keyboard-response","29","54742","0.0-3.0-0.13","","fixation","","",""
"741","Set1/179a.jpg","79","image-keyboard-response","30","55483","0.0-3.0-1.13","","","Set_2_Only","o","true"
"null","<div style=""font-size:60px;"">+</div>","null","html-keyboard-response","31","55985","0.0-3.0-0.14","","fixation","","",""
"891","Set1/153b.jpg","78","image-keyboard-response","32","56877","0.0-3.0-1.14","","","Update","n","true"
"null","<div style=""font-size:60px;"">+</div>","null","html-keyboard-response","33","57378","0.0-3.0-0.15","","fixation","","",""
"765","Set1/083a.jpg","78","image-keyboard-response","34","58145","0.0-3.0-1.15","","","Repeat","n","true"
"null","<div style=""font-size:60px;"">+</div>","null","html-keyboard-response","35","58648","0.0-3.0-0.16","","fixation","","",""
"883","Set1/126b.jpg","78","image-keyboard-response","36","59532","0.0-3.0-1.16","","","Update","n","true"
"null","<div style=""font-size:60px;"">+</div>","null","html-keyboard-response","37","60035","0.0-3.0-0.17","","fixation","","",""
"1414","Set1/135b.jpg","79","image-keyboard-response","38","61451","0.0-3.0-1.17","","","Update","n","false"
"null","<div style=""font-size:60px;"">+</div>","null","html-keyboard-response","39","61953","0.0-3.0-0.18","","fixation","","",""
"819","Set1/108b.jpg","78","image-keyboard-response","40","62774","0.0-3.0-1.18","","","Update","n","true"
"null","<div style=""font-size:60px;"">+</div>","null","html-keyboard-response","41","63275","0.0-3.0-0.19","","fixation","","",""
"869","Set1/142b.jpg","78","image-keyboard-response","42","64146","0.0-3.0-1.19","","","Update","o","false"
"null","<div style=""font-size:60px;"">+</div>","null","html-keyboard-response","43","64648","0.0-3.0-0.20","","fixation","","",""
"952","Set1/138b.jpg","78","image-keyboard-response","44","65601","0.0-3.0-1.20","","","Update","n","true"
"null","<div style=""font-size:60px;"">+</div>","null","html-keyboard-response","45","66104","0.0-3.0-0.21","","fixation","","",""
"1385","Set1/171a.jpg","78","image-keyboard-response","46","67491","0.0-3.0-1.21","","","Set_2_Only","n","true"
"null","<div style=""font-size:60px;"">+</div>","null","html-keyboard-response","47","67994","0.0-3.0-0.22","","fixation","","",""
"659","Set1/148b.jpg","78","image-keyboard-response","48","68654","0.0-3.0-1.22","","","Update","o","false"
"null","<div style=""font-size:60px;"">+</div>","null","html-keyboard-response","49","69156","0.0-3.0-0.23","","fixation","","",""
"1135","Set1/083a.jpg","78","image-keyboard-response","50","70292","0.0-3.0-1.23","","","Repeat","o","false"
"null","<div style=""font-size:60px;"">+</div>","null","html-keyboard-response","51","70794","0.0-3.0-0.24","","fixation","","",""
"1111","Set1/141b.jpg","78","image-keyboard-response","52","71907","0.0-3.0-1.24","","","Update","n","true"
"null","<div style=""font-size:60px;"">+</div>","null","html-keyboard-response","53","72409","0.0-3.0-0.25","","fixation","","",""
"820","Set1/123b.jpg","78","image-keyboard-response","54","73231","0.0-3.0-1.25","","","Update","n","true"
"null","<div style=""font-size:60px;"">+</div>","null","html-keyboard-response","55","73734","0.0-3.0-0.26","","fixation","","",""
"1869","Set1/145b.jpg","78","image-keyboard-response","56","75604","0.0-3.0-1.26","","","Update","n","true"
"null","<div style=""font-size:60px;"">+</div>","null","html-keyboard-response","57","76106","0.0-3.0-0.27","","fixation","","",""
"1619","Set1/175a.jpg","78","image-keyboard-response","58","77727","0.0-3.0-1.27","","","Set_2_Only","n","true"
"null","<div style=""font-size:60px;"">+</div>","null","html-keyboard-response","59","78229","0.0-3.0-0.28","","fixation","","",""
"827","Set1/177a.jpg","78","image-keyboard-response","60","79060","0.0-3.0-1.28","","","Set_2_Only","n","true"
"null","<div style=""font-size:60px;"">+</div>","null","html-keyboard-response","61","79561","0.0-3.0-0.29","","fixation","","",""
"2463","Set1/119b.jpg","79","image-keyboard-response","62","82025","0.0-3.0-1.29","","","Update","n","false"
"null","<div style=""font-size:60px;"">+</div>","null","html-keyboard-response","63","82528","0.0-3.0-0.30","","fixation","","",""
"789","Set1/177a.jpg","79","image-keyboard-response","64","83319","0.0-3.0-1.30","","","Set_2_Only","o","true"
"null","<div style=""font-size:60px;"">+</div>","null","html-keyboard-response","65","83822","0.0-3.0-0.31","","fixation","","",""
"960","Set1/038a.jpg","78","image-keyboard-response","66","84783","0.0-3.0-1.31","","","Repeat","n","true"
"null","<div style=""font-size:60px;"">+</div>","null","html-keyboard-response","67","85286","0.0-3.0-0.32","","fixation","","",""
"724","Set1/035a.jpg","79","image-keyboard-response","68","86011","0.0-3.0-1.32","","","Repeat","o","true"
"null","<div style=""font-size:60px;"">+</div>","null","html-keyboard-response","69","86520","0.0-3.0-0.33","","fixation","","",""
"667","Set1/171a.jpg","78","image-keyboard-response","70","87190","0.0-3.0-1.33","","","Set_2_Only","o","false"
"null","<div style=""font-size:60px;"">+</div>","null","html-keyboard-response","71","87692","0.0-3.0-0.34","","fixation","","",""
"1730","Set1/157b.jpg","78","image-keyboard-response","72","89423","0.0-3.0-1.34","","","Update","n","true"
"null","<div style=""font-size:60px;"">+</div>","null","html-keyboard-response","73","89926","0.0-3.0-0.35","","fixation","","",""
"1131","Set1/170a.jpg","79","image-keyboard-response","74","91058","0.0-3.0-1.35","","","Set_2_Only","o","true"
"null","<div style=""font-size:60px;"">+</div>","null","html-keyboard-response","75","91560","0.0-3.0-0.36","","fixation","","",""
"1849","Set1/135b.jpg","78","image-keyboard-response","76","93412","0.0-3.0-1.36","","","Update","o","false"
"null","<div style=""font-size:60px;"">+</div>","null","html-keyboard-response","77","93915","0.0-3.0-0.37","","fixation","","",""
"3130","Set1/090a.jpg","78","image-keyboard-response","78","97047","0.0-3.0-1.37","","","Repeat","o","false"
"null","<div style=""font-size:60px;"">+</div>","null","html-keyboard-response","79","97549","0.0-3.0-0.38","","fixation","","",""
"602","Set1/095a.jpg","79","image-keyboard-response","80","98153","0.0-3.0-1.38","","","Repeat","o","true"
"null","<div style=""font-size:60px;"">+</div>","null","html-keyboard-response","81","98656","0.0-3.0-0.39","","fixation","","",""
"649","Set1/108b.jpg","78","image-keyboard-response","82","99307","0.0-3.0-1.39","","","Update","o","false"
"null","<div style=""font-size:60px;"">+</div>","null","html-keyboard-response","83","99810","0.0-3.0-0.40","","fixation","","",""
"2183","Set1/040a.jpg","78","image-keyboard-response","84","101995","0.0-3.0-1.40","","","Repeat","n","true"
"null","<div style=""font-size:60px;"">+</div>","null","html-keyboard-response","85","102497","0.0-3.0-0.41","","fixation","","",""
"1365","Set1/058a.jpg","78","image-keyboard-response","86","103864","0.0-3.0-1.41","","","Repeat","n","true"
"null","<div style=""font-size:60px;"">+</div>","null","html-keyboard-response","87","104366","0.0-3.0-0.42","","fixation","","",""
"2719","Set1/140b.jpg","78","image-keyboard-response","88","107087","0.0-3.0-1.42","","","Update","n","true"
"null","<div style=""font-size:60px;"">+</div>","null","html-keyboard-response","89","107589","0.0-3.0-0.43","","fixation","","",""
"728","Set1/037a.jpg","79","image-keyboard-response","90","108318","0.0-3.0-1.43","","","Repeat","o","true"
"null","<div style=""font-size:60px;"">+</div>","null","html-keyboard-response","91","108820","0.0-3.0-0.44","","fixation","","",""
"923","Set1/153b.jpg","78","image-keyboard-response","92","109746","0.0-3.0-1.44","","","Update","o","false"
"null","<div style=""font-size:60px;"">+</div>","null","html-keyboard-response","93","110247","0.0-3.0-0.45","","fixation","","",""
"1432","Set1/168a.jpg","78","image-keyboard-response","94","111680","0.0-3.0-1.45","","","Set_2_Only","n","true"
"null","<div style=""font-size:60px;"">+</div>","null","html-keyboard-response","95","112183","0.0-3.0-0.46","","fixation","","",""
"3264","Set1/091a.jpg","78","image-keyboard-response","96","115449","0.0-3.0-1.46","","","Repeat","n","true"
"null","<div style=""font-size:60px;"">+</div>","null","html-keyboard-response","97","115951","0.0-3.0-0.47","","fixation","","",""
"715","Set1/119b.jpg","79","image-keyboard-response","98","116669","0.0-3.0-1.47","","","Update","o","true"
"null","<div style=""font-size:60px;"">+</div>","null","html-keyboard-response","99","117171","0.0-3.0-0.48","","fixation","","",""
"726","Set1/168a.jpg","78","image-keyboard-response","100","117898","0.0-3.0-1.48","","","Set_2_Only","o","false"
"null","<div style=""font-size:60px;"">+</div>","null","html-keyboard-response","101","118400","0.0-3.0-0.49","","fixation","","",""
"646","Set1/038a.jpg","79","image-keyboard-response","102","119048","0.0-3.0-1.49","","","Repeat","o","true"
"null","<div style=""font-size:60px;"">+</div>","null","html-keyboard-response","103","119550","0.0-3.0-0.50","","fixation","","",""
"1330","Set1/154b.jpg","78","image-keyboard-response","104","120882","0.0-3.0-1.50","","","Update","n","true"
"null","<div style=""font-size:60px;"">+</div>","null","html-keyboard-response","105","121383","0.0-3.0-0.51","","fixation","","",""
"1022","Set1/067a.jpg","78","image-keyboard-response","106","122407","0.0-3.0-1.51","","","Repeat","n","true"
"null","<div style=""font-size:60px;"">+</div>","null","html-keyboard-response","107","122909","0.0-3.0-0.52","","fixation","","",""
"2052","Set1/080a.jpg","79","image-keyboard-response","108","124962","0.0-3.0-1.52","","","Repeat","o","true"
"null","<div style=""font-size:60px;"">+</div>","null","html-keyboard-response","109","125464","0.0-3.0-0.53","","fixation","","",""
"1600","Set1/154b.jpg","79","image-keyboard-response","110","127067","0.0-3.0-1.53","","","Update","o","true"
"null","<div style=""font-size:60px;"">+</div>","null","html-keyboard-response","111","127568","0.0-3.0-0.54","","fixation","","",""
"914","Set1/087a.jpg","78","image-keyboard-response","112","128483","0.0-3.0-1.54","","","Repeat","n","true"
"null","<div style=""font-size:60px;"">+</div>","null","html-keyboard-response","113","128985","0.0-3.0-0.55","","fixation","","",""
"833","Set1/149b.jpg","79","image-keyboard-response","114","129820","0.0-3.0-1.55","","","Update","n","false"
"null","<div style=""font-size:60px;"">+</div>","null","html-keyboard-response","115","130322","0.0-3.0-0.56","","fixation","","",""
"787","Set1/173a.jpg","78","image-keyboard-response","116","131110","0.0-3.0-1.56","","","Set_2_Only","n","true"
"null","<div style=""font-size:60px;"">+</div>","null","html-keyboard-response","117","131613","0.0-3.0-0.57","","fixation","","",""
"583","Set1/040a.jpg","78","image-keyboard-response","118","132198","0.0-3.0-1.57","","","Repeat","o","false"
"null","<div style=""font-size:60px;"">+</div>","null","html-keyboard-response","119","132700","0.0-3.0-0.58","","fixation","","",""
"1519","Set1/058a.jpg","79","image-keyboard-response","120","134221","0.0-3.0-1.58","","","Repeat","o","true"
"null","<div style=""font-size:60px;"">+</div>","null","html-keyboard-response","121","134723","0.0-3.0-0.59","","fixation","","",""
"694","Set1/173a.jpg","79","image-keyboard-response","122","135419","0.0-3.0-1.59","","","Set_2_Only","o","true"
"null","<div style=""font-size:60px;"">+</div>","null","html-keyboard-response","123","135921","0.0-3.0-0.60","","fixation","","",""
"526","Set1/140b.jpg","79","image-keyboard-response","124","136450","0.0-3.0-1.60","","","Update","o","true"
"null","<div style=""font-size:60px;"">+</div>","null","html-keyboard-response","125","136953","0.0-3.0-0.61","","fixation","","",""
"757","Set1/187a.jpg","78","image-keyboard-response","126","137712","0.0-3.0-1.61","","","Set_2_Only","n","true"
"null","<div style=""font-size:60px;"">+</div>","null","html-keyboard-response","127","138215","0.0-3.0-0.62","","fixation","","",""
"700","Set1/067a.jpg","79","image-keyboard-response","128","138917","0.0-3.0-1.62","","","Repeat","o","true"
"null","<div style=""font-size:60px;"">+</div>","null","html-keyboard-response","129","139418","0.0-3.0-0.63","","fixation","","",""
"918","Set1/126b.jpg","78","image-keyboard-response","130","140336","0.0-3.0-1.63","","","Update","o","false"
"null","<div style=""font-size:60px;"">+</div>","null","html-keyboard-response","131","140838","0.0-3.0-0.64","","fixation","","",""
"2815","Set1/188a.jpg","78","image-keyboard-response","132","143654","0.0-3.0-1.64","","","Set_2_Only","n","true"
"null","<div style=""font-size:60px;"">+</div>","null","html-keyboard-response","133","144156","0.0-3.0-0.65","","fixation","","",""
"671","Set1/145b.jpg","78","image-keyboard-response","134","144828","0.0-3.0-1.65","","","Update","o","false"
"null","<div style=""font-size:60px;"">+</div>","null","html-keyboard-response","135","145330","0.0-3.0-0.66","","fixation","","",""
"676","Set1/075a.jpg","79","image-keyboard-response","136","146008","0.0-3.0-1.66","","","Repeat","o","true"
"null","<div style=""font-size:60px;"">+</div>","null","html-keyboard-response","137","146510","0.0-3.0-0.67","","fixation","","",""
"1016","Set1/059a.jpg","78","image-keyboard-response","138","147528","0.0-3.0-1.67","","","Repeat","n","true"
"null","<div style=""font-size:60px;"">+</div>","null","html-keyboard-response","139","148029","0.0-3.0-0.68","","fixation","","",""
"584","Set1/149b.jpg","79","image-keyboard-response","140","148614","0.0-3.0-1.68","","","Update","o","true"
"null","<div style=""font-size:60px;"">+</div>","null","html-keyboard-response","141","149116","0.0-3.0-0.69","","fixation","","",""
"656","Set1/087a.jpg","79","image-keyboard-response","142","149774","0.0-3.0-1.69","","","Repeat","o","true"
"null","<div style=""font-size:60px;"">+</div>","null","html-keyboard-response","143","150276","0.0-3.0-0.70","","fixation","","",""
"887","Set1/187a.jpg","79","image-keyboard-response","144","151164","0.0-3.0-1.70","","","Set_2_Only","o","true"
"null","<div style=""font-size:60px;"">+</div>","null","html-keyboard-response","145","151667","0.0-3.0-0.71","","fixation","","",""
"733","Set1/059a.jpg","79","image-keyboard-response","146","152402","0.0-3.0-1.71","","","Repeat","o","true"
"null","<div style=""font-size:60px;"">+</div>","null","html-keyboard-response","147","152904","0.0-3.0-0.72","","fixation","","",""
"612","Set1/157b.jpg","79","image-keyboard-response","148","153517","0.0-3.0-1.72","","","Update","o","true"
"null","<div style=""font-size:60px;"">+</div>","null","html-keyboard-response","149","154023","0.0-3.0-0.73","","fixation","","",""
"653","Set1/123b.jpg","79","image-keyboard-response","150","154679","0.0-3.0-1.73","","","Update","o","true"
"null","<div style=""font-size:60px;"">+</div>","null","html-keyboard-response","151","155180","0.0-3.0-0.74","","fixation","","",""
"543","Set1/175a.jpg","79","image-keyboard-response","152","155726","0.0-3.0-1.74","","","Set_2_Only","o","true"
"null","<div style=""font-size:60px;"">+</div>","null","html-keyboard-response","153","156228","0.0-3.0-0.75","","fixation","","",""
"698","Set1/188a.jpg","79","image-keyboard-response","154","156927","0.0-3.0-1.75","","","Set_2_Only","o","true"
"null","<div style=""font-size:60px;"">+</div>","null","html-keyboard-response","155","157429","0.0-3.0-0.76","","fixation","","",""
"618","Set1/039a.jpg","79","image-keyboard-response","156","158049","0.0-3.0-1.76","","","Repeat","o","true"
"null","<div style=""font-size:60px;"">+</div>","null","html-keyboard-response","157","158551","0.0-3.0-0.77","","fixation","","",""
"556","Set1/141b.jpg","79","image-keyboard-response","158","159108","0.0-3.0-1.77","","","Update","o","true"
"null","<div style=""font-size:60px;"">+</div>","null","html-keyboard-response","159","159610","0.0-3.0-0.78","","fixation","","",""
"694","Set1/091a.jpg","78","image-keyboard-response","160","160307","0.0-3.0-1.78","","","Repeat","o","false"
"null","<div style=""font-size:60px;"">+</div>","null","html-keyboard-response","161","160808","0.0-3.0-0.79","","fixation","","",""
"705","Set1/138b.jpg","79","image-keyboard-response","162","161516","0.0-3.0-1.79","","","Update","o","true"
"null","<div style=""font-size:60px;"">+</div>","null","html-keyboard-response","163","162017","0.0-3.0-0.80","","fixation","","",""
"927","Set1/055a.jpg","78","image-keyboard-response","164","162946","0.0-3.0-1.80","","","Repeat","n","true"
"null","<div style=""font-size:60px;"">+</div>","null","html-keyboard-response","165","163447","0.0-3.0-0.81","","fixation","","",""
"3204","Set1/128b.jpg","78","image-keyboard-response","166","166652","0.0-3.0-1.81","","","Update","n","true"
"null","<div style=""font-size:60px;"">+</div>","null","html-keyboard-response","167","167154","0.0-3.0-0.82","","fixation","","",""
"1009","Set1/046a.jpg","79","image-keyboard-response","168","168165","0.0-3.0-1.82","","","Repeat","n","false"
"null","<div style=""font-size:60px;"">+</div>","null","html-keyboard-response","169","168667","0.0-3.0-0.83","","fixation","","",""
"1253","Set1/139b.jpg","78","image-keyboard-response","170","169921","0.0-3.0-1.83","","","Update","n","true"
"null","<div style=""font-size:60px;"">+</div>","null","html-keyboard-response","171","170423","0.0-3.0-0.84","","fixation","","",""
"1412","Set1/084a.jpg","78","image-keyboard-response","172","171837","0.0-3.0-1.84","","","Repeat","n","true"
"null","<div style=""font-size:60px;"">+</div>","null","html-keyboard-response","173","172339","0.0-3.0-0.85","","fixation","","",""
"2470","Set1/147b.jpg","78","image-keyboard-response","174","174810","0.0-3.0-1.85","","","Update","n","true"
"null","<div style=""font-size:60px;"">+</div>","null","html-keyboard-response","175","175311","0.0-3.0-0.86","","fixation","","",""
"1541","Set1/176a.jpg","78","image-keyboard-response","176","176855","0.0-3.0-1.86","","","Set_2_Only","n","true"
"null","<div style=""font-size:60px;"">+</div>","null","html-keyboard-response","177","177357","0.0-3.0-0.87","","fixation","","",""
"667","Set1/042a.jpg","78","image-keyboard-response","178","178025","0.0-3.0-1.87","","","Repeat","n","true"
"null","<div style=""font-size:60px;"">+</div>","null","html-keyboard-response","179","178528","0.0-3.0-0.88","","fixation","","",""
"469","Set1/114b.jpg","78","image-keyboard-response","180","178997","0.0-3.0-1.88","","","Update","n","true"
"null","<div style=""font-size:60px;"">+</div>","null","html-keyboard-response","181","179499","0.0-3.0-0.89","","fixation","","",""
"1818","Set1/064a.jpg","79","image-keyboard-response","182","181318","0.0-3.0-1.89","","","Repeat","n","false"
"null","<div style=""font-size:60px;"">+</div>","null","html-keyboard-response","183","181821","0.0-3.0-0.90","","fixation","","",""
"720","Set1/036a.jpg","79","image-keyboard-response","184","182542","0.0-3.0-1.90","","","Repeat","n","false"
"null","<div style=""font-size:60px;"">+</div>","null","html-keyboard-response","185","183045","0.0-3.0-0.91","","fixation","","",""
"689","Set1/139b.jpg","79","image-keyboard-response","186","183736","0.0-3.0-1.91","","","Update","o","true"
"null","<div style=""font-size:60px;"">+</div>","null","html-keyboard-response","187","184238","0.0-3.0-0.92","","fixation","","",""
"1010","Set1/128b.jpg","79","image-keyboard-response","188","185250","0.0-3.0-1.92","","","Update","o","true"
"null","<div style=""font-size:60px;"">+</div>","null","html-keyboard-response","189","185752","0.0-3.0-0.93","","fixation","","",""
"885","Set1/044a.jpg","78","image-keyboard-response","190","186638","0.0-3.0-1.93","","","Repeat","n","true"
"null","<div style=""font-size:60px;"">+</div>","null","html-keyboard-response","191","187141","0.0-3.0-0.94","","fixation","","",""
"1424","Set1/162a.jpg","78","image-keyboard-response","192","188567","0.0-3.0-1.94","","","Set_2_Only","n","true"
"null","<div style=""font-size:60px;"">+</div>","null","html-keyboard-response","193","189069","0.0-3.0-0.95","","fixation","","",""
"814","Set1/074a.jpg","78","image-keyboard-response","194","189885","0.0-3.0-1.95","","","Repeat","n","true"
"null","<div style=""font-size:60px;"">+</div>","null","html-keyboard-response","195","190387","0.0-3.0-0.96","","fixation","","",""
"1714","Set1/114b.jpg","78","image-keyboard-response","196","192103","0.0-3.0-1.96","","","Update","o","false"
"null","<div style=""font-size:60px;"">+</div>","null","html-keyboard-response","197","192605","0.0-3.0-0.97","","fixation","","",""
"2286","Set1/159b.jpg","78","image-keyboard-response","198","194893","0.0-3.0-1.97","","","Update","n","true"
"null","<div style=""font-size:60px;"">+</div>","null","html-keyboard-response","199","195395","0.0-3.0-0.98","","fixation","","",""
"2041","Set1/143b.jpg","78","image-keyboard-response","200","197437","0.0-3.0-1.98","","","Update","n","true"
"null","<div style=""font-size:60px;"">+</div>","null","html-keyboard-response","201","197938","0.0-3.0-0.99","","fixation","","",""
"1116","Set1/103b.jpg","78","image-keyboard-response","202","199057","0.0-3.0-1.99","","","Update","n","true"
"null","<div style=""font-size:60px;"">+</div>","null","html-keyboard-response","203","199559","0.0-3.0-0.100","","fixation","","",""
"3693","Set1/047a.jpg","78","image-keyboard-response","204","203253","0.0-3.0-1.100","","","Repeat","n","true"
"null","<div style=""font-size:60px;"">+</div>","null","html-keyboard-response","205","203756","0.0-3.0-0.101","","fixation","","",""
"721","Set1/064a.jpg","79","image-keyboard-response","206","204480","0.0-3.0-1.101","","","Repeat","o","true"
"null","<div style=""font-size:60px;"">+</div>","null","html-keyboard-response","207","204983","0.0-3.0-0.102","","fixation","","",""
"1109","Set1/191a.jpg","78","image-keyboard-response","208","206094","0.0-3.0-1.102","","","Set_2_Only","n","true"
"null","<div style=""font-size:60px;"">+</div>","null","html-keyboard-response","209","206596","0.0-3.0-0.103","","fixation","","",""
"922","Set1/071a.jpg","78","image-keyboard-response","210","207520","0.0-3.0-1.103","","","Repeat","n","true"
"null","<div style=""font-size:60px;"">+</div>","null","html-keyboard-response","211","208023","0.0-3.0-0.104","","fixation","","",""
"669","Set1/096a.jpg","78","image-keyboard-response","212","208694","0.0-3.0-1.104","","","Repeat","n","true"
"null","<div style=""font-size:60px;"">+</div>","null","html-keyboard-response","213","209196","0.0-3.0-0.105","","fixation","","",""
"1263","Set1/098b.jpg","78","image-keyboard-response","214","210460","0.0-3.0-1.105","","","Update","n","true"
"null","<div style=""font-size:60px;"">+</div>","null","html-keyboard-response","215","210963","0.0-3.0-0.106","","fixation","","",""
"1163","Set1/106b.jpg","78","image-keyboard-response","216","212128","0.0-3.0-1.106","","","Update","n","true"
"null","<div style=""font-size:60px;"">+</div>","null","html-keyboard-response","217","212629","0.0-3.0-0.107","","fixation","","",""
"766","Set1/159b.jpg","78","image-keyboard-response","218","213398","0.0-3.0-1.107","","","Update","o","false"
"null","<div style=""font-size:60px;"">+</div>","null","html-keyboard-response","219","213900","0.0-3.0-0.108","","fixation","","",""
"835","Set1/071a.jpg","79","image-keyboard-response","220","214736","0.0-3.0-1.108","","","Repeat","o","true"
"null","<div style=""font-size:60px;"">+</div>","null","html-keyboard-response","221","215239","0.0-3.0-0.109","","fixation","","",""
"862","Set1/047a.jpg","79","image-keyboard-response","222","216103","0.0-3.0-1.109","","","Repeat","o","true"
"null","<div style=""font-size:60px;"">+</div>","null","html-keyboard-response","223","216605","0.0-3.0-0.110","","fixation","","",""
"893","Set1/144b.jpg","78","image-keyboard-response","224","217501","0.0-3.0-1.110","","","Update","n","true"
"null","<div style=""font-size:60px;"">+</div>","null","html-keyboard-response","225","218003","0.0-3.0-0.111","","fixation","","",""
"1211","Set1/069a.jpg","79","image-keyboard-response","226","219215","0.0-3.0-1.111","","","Repeat","n","false"
"null","<div style=""font-size:60px;"">+</div>","null","html-keyboard-response","227","219717","0.0-3.0-0.112","","fixation","","",""
"718","Set1/034a.jpg","78","image-keyboard-response","228","220436","0.0-3.0-1.112","","","Repeat","n","true"
"null","<div style=""font-size:60px;"">+</div>","null","html-keyboard-response","229","220938","0.0-3.0-0.113","","fixation","","",""
"612","Set1/050a.jpg","78","image-keyboard-response","230","221553","0.0-3.0-1.113","","","Repeat","n","true"
"null","<div style=""font-size:60px;"">+</div>","null","html-keyboard-response","231","222055","0.0-3.0-0.114","","fixation","","",""
"638","Set1/068a.jpg","78","image-keyboard-response","232","222694","0.0-3.0-1.114","","","Repeat","n","true"
"null","<div style=""font-size:60px;"">+</div>","null","html-keyboard-response","233","223197","0.0-3.0-0.115","","fixation","","",""
"1273","Set1/130b.jpg","78","image-keyboard-response","234","224472","0.0-3.0-1.115","","","Update","n","true"
"null","<div style=""font-size:60px;"">+</div>","null","html-keyboard-response","235","224973","0.0-3.0-0.116","","fixation","","",""
"1122","Set1/046a.jpg","78","image-keyboard-response","236","226097","0.0-3.0-1.116","","","Repeat","o","false"
"null","<div style=""font-size:60px;"">+</div>","null","html-keyboard-response","237","226600","0.0-3.0-0.117","","fixation","","",""
"787","Set1/073a.jpg","78","image-keyboard-response","238","227388","0.0-3.0-1.117","","","Repeat","n","true"
"null","<div style=""font-size:60px;"">+</div>","null","html-keyboard-response","239","227890","0.0-3.0-0.118","","fixation","","",""
"745","Set1/078a.jpg","78","image-keyboard-response","240","228636","0.0-3.0-1.118","","","Repeat","n","true"
"null","<div style=""font-size:60px;"">+</div>","null","html-keyboard-response","241","229138","0.0-3.0-0.119","","fixation","","",""
"521","Set1/147b.jpg","78","image-keyboard-response","242","229661","0.0-3.0-1.119","","","Update","o","false"
"null","<div style=""font-size:60px;"">+</div>","null","html-keyboard-response","243","230164","0.0-3.0-0.120","","fixation","","",""
"508","Set1/066a.jpg","78","image-keyboard-response","244","230673","0.0-3.0-1.120","","","Repeat","n","true"
"null","<div style=""font-size:60px;"">+</div>","null","html-keyboard-response","245","231175","0.0-3.0-0.121","","fixation","","",""
"710","Set1/106b.jpg","78","image-keyboard-response","246","231887","0.0-3.0-1.121","","","Update","o","false"
"null","<div style=""font-size:60px;"">+</div>","null","html-keyboard-response","247","232389","0.0-3.0-0.122","","fixation","","",""
"1213","Set1/112b.jpg","78","image-keyboard-response","248","233604","0.0-3.0-1.122","","","Update","n","true"
"null","<div style=""font-size:60px;"">+</div>","null","html-keyboard-response","249","234105","0.0-3.0-0.123","","fixation","","",""
"3058","Set1/185a.jpg","78","image-keyboard-response","250","237165","0.0-3.0-1.123","","","Set_2_Only","n","true"
"null","<div style=""font-size:60px;"">+</div>","null","html-keyboard-response","251","237668","0.0-3.0-0.124","","fixation","","",""
"654","Set1/036a.jpg","79","image-keyboard-response","252","238324","0.0-3.0-1.124","","","Repeat","o","true"
"null","<div style=""font-size:60px;"">+</div>","null","html-keyboard-response","253","238826","0.0-3.0-0.125","","fixation","","",""
"586","Set1/098b.jpg","79","image-keyboard-response","254","239413","0.0-3.0-1.125","","","Update","o","true"
"null","<div style=""font-size:60px;"">+</div>","null","html-keyboard-response","255","239915","0.0-3.0-0.126","","fixation","","",""
"580","Set1/096a.jpg","79","image-keyboard-response","256","240497","0.0-3.0-1.126","","","Repeat","o","true"
"null","<div style=""font-size:60px;"">+</div>","null","html-keyboard-response","257","240999","0.0-3.0-0.127","","fixation","","",""
"760","Set1/185a.jpg","78","image-keyboard-response","258","241762","0.0-3.0-1.127","","","Set_2_Only","o","false"
"null","<div style=""font-size:60px;"">+</div>","null","html-keyboard-response","259","242264","0.0-3.0-0.128","","fixation","","",""
"797","Set1/066a.jpg","79","image-keyboard-response","260","243062","0.0-3.0-1.128","","","Repeat","o","true"
"null","<div style=""font-size:60px;"">+</div>","null","html-keyboard-response","261","243564","0.0-3.0-0.129","","fixation","","",""
"788","Set1/144b.jpg","79","image-keyboard-response","262","244354","0.0-3.0-1.129","","","Update","o","true"
"null","<div style=""font-size:60px;"">+</div>","null","html-keyboard-response","263","244856","0.0-3.0-0.130","","fixation","","",""
"766","Set1/112b.jpg","79","image-keyboard-response","264","245625","0.0-3.0-1.130","","","Update","o","true"
"null","<div style=""font-size:60px;"">+</div>","null","html-keyboard-response","265","246127","0.0-3.0-0.131","","fixation","","",""
"677","Set1/162a.jpg","78","image-keyboard-response","266","246805","0.0-3.0-1.131","","","Set_2_Only","o","false"
"null","<div style=""font-size:60px;"">+</div>","null","html-keyboard-response","267","247307","0.0-3.0-0.132","","fixation","","",""
"830","Set1/176a.jpg","79","image-keyboard-response","268","248139","0.0-3.0-1.132","","","Set_2_Only","o","true"
"null","<div style=""font-size:60px;"">+</div>","null","html-keyboard-response","269","248641","0.0-3.0-0.133","","fixation","","",""
"1035","Set1/050a.jpg","78","image-keyboard-response","270","249677","0.0-3.0-1.133","","","Repeat","o","false"
"null","<div style=""font-size:60px;"">+</div>","null","html-keyboard-response","271","250180","0.0-3.0-0.134","","fixation","","",""
"941","Set1/078a.jpg","78","image-keyboard-response","272","251123","0.0-3.0-1.134","","","Repeat","o","false"
"null","<div style=""font-size:60px;"">+</div>","null","html-keyboard-response","273","251625","0.0-3.0-0.135","","fixation","","",""
"1313","Set1/150b.jpg","79","image-keyboard-response","274","252940","0.0-3.0-1.135","","","Update","n","false"
"null","<div style=""font-size:60px;"">+</div>","null","html-keyboard-response","275","253443","0.0-3.0-0.136","","fixation","","",""
"885","Set1/043a.jpg","79","image-keyboard-response","276","254329","0.0-3.0-1.136","","","Repeat","n","false"
"null","<div style=""font-size:60px;"">+</div>","null","html-keyboard-response","277","254831","0.0-3.0-0.137","","fixation","","",""
"1001","Set1/100b.jpg","78","image-keyboard-response","278","255834","0.0-3.0-1.137","","","Update","n","true"
"null","<div style=""font-size:60px;"">+</div>","null","html-keyboard-response","279","256336","0.0-3.0-0.138","","fixation","","",""
"424","Set1/042a.jpg","78","image-keyboard-response","280","256762","0.0-3.0-1.138","","","Repeat","o","false"
"null","<div style=""font-size:60px;"">+</div>","null","html-keyboard-response","281","257264","0.0-3.0-0.139","","fixation","","",""
"581","Set1/131b.jpg","78","image-keyboard-response","282","257847","0.0-3.0-1.139","","","Update","n","true"
"null","<div style=""font-size:60px;"">+</div>","null","html-keyboard-response","283","258349","0.0-3.0-0.140","","fixation","","",""
"809","Set1/073a.jpg","79","image-keyboard-response","284","259159","0.0-3.0-1.140","","","Repeat","o","true"
"null","<div style=""font-size:60px;"">+</div>","null","html-keyboard-response","285","259663","0.0-3.0-0.141","","fixation","","",""
"1117","Set1/074a.jpg","78","image-keyboard-response","286","260782","0.0-3.0-1.141","","","Repeat","o","false"
"null","<div style=""font-size:60px;"">+</div>","null","html-keyboard-response","287","261283","0.0-3.0-0.142","","fixation","","",""
"685","Set1/034a.jpg","78","image-keyboard-response","288","261970","0.0-3.0-1.142","","","Repeat","o","false"
"null","<div style=""font-size:60px;"">+</div>","null","html-keyboard-response","289","262473","0.0-3.0-0.143","","fixation","","",""
"767","Set1/068a.jpg","79","image-keyboard-response","290","263242","0.0-3.0-1.143","","","Repeat","o","true"
"null","<div style=""font-size:60px;"">+</div>","null","html-keyboard-response","291","263745","0.0-3.0-0.144","","fixation","","",""
"653","Set1/191a.jpg","79","image-keyboard-response","292","264400","0.0-3.0-1.144","","","Set_2_Only","o","true"
"null","<div style=""font-size:60px;"">+</div>","null","html-keyboard-response","293","264903","0.0-3.0-0.145","","fixation","","",""
"510","Set1/131b.jpg","79","image-keyboard-response","294","265416","0.0-3.0-1.145","","","Update","o","true"
"null","<div style=""font-size:60px;"">+</div>","null","html-keyboard-response","295","265919","0.0-3.0-0.146","","fixation","","",""
"537","Set1/043a.jpg","79","image-keyboard-response","296","266457","0.0-3.0-1.146","","","Repeat","o","true"
"null","<div style=""font-size:60px;"">+</div>","null","html-keyboard-response","297","266960","0.0-3.0-0.147","","fixation","","",""
"559","Set1/100b.jpg","79","image-keyboard-response","298","267522","0.0-3.0-1.147","","","Update","o","true"
"null","<div style=""font-size:60px;"">+</div>","null","html-keyboard-response","299","268023","0.0-3.0-0.148","","fixation","","",""
"510","Set1/055a.jpg","79","image-keyboard-response","300","268534","0.0-3.0-1.148","","","Repeat","o","true"
"null","<div style=""font-size:60px;"">+</div>","null","html-keyboard-response","301","269036","0.0-3.0-0.149","","fixation","","",""
"2040","Set1/041a.jpg","78","image-keyboard-response","302","271078","0.0-3.0-1.149","","","Repeat","n","true"
"null","<div style=""font-size:60px;"">+</div>","null","html-keyboard-response","303","271579","0.0-3.0-0.150","","fixation","","",""
"879","Set1/069a.jpg","79","image-keyboard-response","304","272461","0.0-3.0-1.150","","","Repeat","o","true"
"null","<div style=""font-size:60px;"">+</div>","null","html-keyboard-response","305","272963","0.0-3.0-0.151","","fixation","","",""
"894","Set1/061a.jpg","78","image-keyboard-response","306","273859","0.0-3.0-1.151","","","Repeat","n","true"
"null","<div style=""font-size:60px;"">+</div>","null","html-keyboard-response","307","274362","0.0-3.0-0.152","","fixation","","",""
"747","Set1/103b.jpg","78","image-keyboard-response","308","275110","0.0-3.0-1.152","","","Update","o","false"
"null","<div style=""font-size:60px;"">+</div>","null","html-keyboard-response","309","275613","0.0-3.0-0.153","","fixation","","",""
"661","Set1/044a.jpg","78","image-keyboard-response","310","276276","0.0-3.0-1.153","","","Repeat","o","false"
"null","<div style=""font-size:60px;"">+</div>","null","html-keyboard-response","311","276777","0.0-3.0-0.154","","fixation","","",""
"582","Set1/150b.jpg","79","image-keyboard-response","312","277361","0.0-3.0-1.154","","","Update","o","true"
"null","<div style=""font-size:60px;"">+</div>","null","html-keyboard-response","313","277863","0.0-3.0-0.155","","fixation","","",""
"856","Set1/084a.jpg","78","image-keyboard-response","314","278721","0.0-3.0-1.155","","","Repeat","o","false"
"null","<div style=""font-size:60px;"">+</div>","null","html-keyboard-response","315","279223","0.0-3.0-0.156","","fixation","","",""
"627","Set1/130b.jpg","79","image-keyboard-response","316","279851","0.0-3.0-1.156","","","Update","o","true"
"null","<div style=""font-size:60px;"">+</div>","null","html-keyboard-response","317","280354","0.0-3.0-0.157","","fixation","","",""
"669","Set1/143b.jpg","78","image-keyboard-response","318","281024","0.0-3.0-1.157","","","Update","o","false"
"null","<div style=""font-size:60px;"">+</div>","null","html-keyboard-response","319","281526","0.0-3.0-0.158","","fixation","","",""
"768","Set1/061a.jpg","78","image-keyboard-response","320","282295","0.0-3.0-1.158","","","Repeat","o","false"
"null","<div style=""font-size:60px;"">+</div>","null","html-keyboard-response","321","282797","0.0-3.0-0.159","","fixation","","",""
"537","Set1/041a.jpg","79","image-keyboard-response","322","283335","0.0-3.0-1.159","","","Repeat","o","true"
"null","<div style=""font-size:60px;"">+</div>","null","html-keyboard-response","323","283838","0.0-3.0-0.160","","fixation","","",""
"654","Set1/113b.jpg","79","image-keyboard-response","324","284493","0.0-3.0-1.160","","","Update","n","false"
"null","<div style=""font-size:60px;"">+</div>","null","html-keyboard-response","325","284995","0.0-3.0-0.161","","fixation","","",""
"818","Set1/105b.jpg","78","image-keyboard-response","326","285815","0.0-3.0-1.161","","","Update","n","true"
"null","<div style=""font-size:60px;"">+</div>","null","html-keyboard-response","327","286318","0.0-3.0-0.162","","fixation","","",""
"781","Set1/056a.jpg","78","image-keyboard-response","328","287101","0.0-3.0-1.162","","","Repeat","n","true"
"null","<div style=""font-size:60px;"">+</div>","null","html-keyboard-response","329","287604","0.0-3.0-0.163","","fixation","","",""
"674","Set1/070a.jpg","78","image-keyboard-response","330","288280","0.0-3.0-1.163","","","Repeat","n","true"
"null","<div style=""font-size:60px;"">+</div>","null","html-keyboard-response","331","288781","0.0-3.0-0.164","","fixation","","",""
"1180","Set1/089a.jpg","79","image-keyboard-response","332","289963","0.0-3.0-1.164","","","Repeat","n","false"
"null","<div style=""font-size:60px;"">+</div>","null","html-keyboard-response","333","290465","0.0-3.0-0.165","","fixation","","",""
"795","Set1/165a.jpg","78","image-keyboard-response","334","291262","0.0-3.0-1.165","","","Set_2_Only","n","true"
"null","<div style=""font-size:60px;"">+</div>","null","html-keyboard-response","335","291764","0.0-3.0-0.166","","fixation","","",""
"801","Set1/065a.jpg","78","image-keyboard-response","336","292567","0.0-3.0-1.166","","","Repeat","n","true"
"null","<div style=""font-size:60px;"">+</div>","null","html-keyboard-response","337","293070","0.0-3.0-0.167","","fixation","","",""
"596","Set1/104b.jpg","78","image-keyboard-response","338","293667","0.0-3.0-1.167","","","Update","n","true"
"null","<div style=""font-size:60px;"">+</div>","null","html-keyboard-response","339","294169","0.0-3.0-0.168","","fixation","","",""
"697","Set1/065a.jpg","79","image-keyboard-response","340","294868","0.0-3.0-1.168","","","Repeat","o","true"
"null","<div style=""font-size:60px;"">+</div>","null","html-keyboard-response","341","295369","0.0-3.0-0.169","","fixation","","",""
"894","Set1/082a.jpg","78","image-keyboard-response","342","296266","0.0-3.0-1.169","","","Repeat","n","true"
"null","<div style=""font-size:60px;"">+</div>","null","html-keyboard-response","343","296768","0.0-3.0-0.170","","fixation","","",""
"1235","Set1/134b.jpg","78","image-keyboard-response","344","298005","0.0-3.0-1.170","","","Update","n","true"
"null","<div style=""font-size:60px;"">+</div>","null","html-keyboard-response","345","298506","0.0-3.0-0.171","","fixation","","",""
"780","Set1/158b.jpg","78","image-keyboard-response","346","299287","0.0-3.0-1.171","","","Update","n","true"
"null","<div style=""font-size:60px;"">+</div>","null","html-keyboard-response","347","299789","0.0-3.0-0.172","","fixation","","",""
"833","Set1/057a.jpg","78","image-keyboard-response","348","300623","0.0-3.0-1.172","","","Repeat","n","true"
"null","<div style=""font-size:60px;"">+</div>","null","html-keyboard-response","349","301125","0.0-3.0-0.173","","fixation","","",""
"703","Set1/105b.jpg","79","image-keyboard-response","350","301829","0.0-3.0-1.173","","","Update","o","true"
"null","<div style=""font-size:60px;"">+</div>","null","html-keyboard-response","351","302330","0.0-3.0-0.174","","fixation","","",""
"1014","Set1/161a.jpg","78","image-keyboard-response","352","303346","0.0-3.0-1.174","","","Set_2_Only","n","true"
"null","<div style=""font-size:60px;"">+</div>","null","html-keyboard-response","353","303848","0.0-3.0-0.175","","fixation","","",""
"662","Set1/101b.jpg","78","image-keyboard-response","354","304512","0.0-3.0-1.175","","","Update","n","true"
"null","<div style=""font-size:60px;"">+</div>","null","html-keyboard-response","355","305013","0.0-3.0-0.176","","fixation","","",""
"593","Set1/089a.jpg","79","image-keyboard-response","356","305609","0.0-3.0-1.176","","","Repeat","o","true"
"null","<div style=""font-size:60px;"">+</div>","null","html-keyboard-response","357","306111","0.0-3.0-0.177","","fixation","","",""
"702","Set1/101b.jpg","78","image-keyboard-response","358","306816","0.0-3.0-1.177","","","Update","o","false"
"null","<div style=""font-size:60px;"">+</div>","null","html-keyboard-response","359","307317","0.0-3.0-0.178","","fixation","","",""
"633","Set1/134b.jpg","79","image-keyboard-response","360","307952","0.0-3.0-1.178","","","Update","o","true"
"null","<div style=""font-size:60px;"">+</div>","null","html-keyboard-response","361","308455","0.0-3.0-0.179","","fixation","","",""
"971","Set1/161a.jpg","78","image-keyboard-response","362","309427","0.0-3.0-1.179","","","Set_2_Only","o","false"
"null","<div style=""font-size:60px;"">+</div>","null","html-keyboard-response","363","309930","0.0-3.0-0.180","","fixation","","",""
"690","Set1/116b.jpg","78","image-keyboard-response","364","310622","0.0-3.0-1.180","","","Update","n","true"
"null","<div style=""font-size:60px;"">+</div>","null","html-keyboard-response","365","311124","0.0-3.0-0.181","","fixation","","",""
"1009","Set1/152b.jpg","78","image-keyboard-response","366","312134","0.0-3.0-1.181","","","Update","n","true"
"null","<div style=""font-size:60px;"">+</div>","null","html-keyboard-response","367","312637","0.0-3.0-0.182","","fixation","","",""
"1533","Set1/045a.jpg","78","image-keyboard-response","368","314171","0.0-3.0-1.182","","","Repeat","n","true"
"null","<div style=""font-size:60px;"">+</div>","null","html-keyboard-response","369","314673","0.0-3.0-0.183","","fixation","","",""
"615","Set1/183a.jpg","78","image-keyboard-response","370","315290","0.0-3.0-1.183","","","Set_2_Only","n","true"
"null","<div style=""font-size:60px;"">+</div>","null","html-keyboard-response","371","315792","0.0-3.0-0.184","","fixation","","",""
"961","Set1/053a.jpg","78","image-keyboard-response","372","316754","0.0-3.0-1.184","","","Repeat","n","true"
"null","<div style=""font-size:60px;"">+</div>","null","html-keyboard-response","373","317257","0.0-3.0-0.185","","fixation","","",""
"1480","Set1/182a.jpg","78","image-keyboard-response","374","318738","0.0-3.0-1.185","","","Set_2_Only","n","true"
"null","<div style=""font-size:60px;"">+</div>","null","html-keyboard-response","375","319241","0.0-3.0-0.186","","fixation","","",""
"881","Set1/124b.jpg","78","image-keyboard-response","376","320124","0.0-3.0-1.186","","","Update","n","true"
"null","<div style=""font-size:60px;"">+</div>","null","html-keyboard-response","377","320627","0.0-3.0-0.187","","fixation","","",""
"842","Set1/155b.jpg","78","image-keyboard-response","378","321470","0.0-3.0-1.187","","","Update","n","true"
"null","<div style=""font-size:60px;"">+</div>","null","html-keyboard-response","379","321973","0.0-3.0-0.188","","fixation","","",""
"635","Set1/104b.jpg","79","image-keyboard-response","380","322610","0.0-3.0-1.188","","","Update","o","true"
"null","<div style=""font-size:60px;"">+</div>","null","html-keyboard-response","381","323112","0.0-3.0-0.189","","fixation","","",""
"816","Set1/052a.jpg","78","image-keyboard-response","382","323929","0.0-3.0-1.189","","","Repeat","n","true"
"null","<div style=""font-size:60px;"">+</div>","null","html-keyboard-response","383","324430","0.0-3.0-0.190","","fixation","","",""
"482","Set1/158b.jpg","78","image-keyboard-response","384","324914","0.0-3.0-1.190","","","Update","o","false"
"null","<div style=""font-size:60px;"">+</div>","null","html-keyboard-response","385","325416","0.0-3.0-0.191","","fixation","","",""
"null","Set1/184a.jpg","null","image-keyboard-response","386","335418","0.0-3.0-1.191","","","Set_2_Only","n","false"
"null","<div style=""font-size:60px;"">+</div>","null","html-keyboard-response","387","335921","0.0-3.0-0.192","","fixation","","",""
"1439","Set1/052a.jpg","79","image-keyboard-response","388","337362","0.0-3.0-1.192","","","Repeat","o","true"
"null","<div style=""font-size:60px;"">+</div>","null","html-keyboard-response","389","337864","0.0-3.0-0.193","","fixation","","",""
"885","Set1/192a.jpg","78","image-keyboard-response","390","338751","0.0-3.0-1.193","","","Set_2_Only","n","true"
"null","<div style=""font-size:60px;"">+</div>","null","html-keyboard-response","391","339253","0.0-3.0-0.194","","fixation","","",""
"1187","Set1/155b.jpg","79","image-keyboard-response","392","340441","0.0-3.0-1.194","","","Update","o","true"
"null","<div style=""font-size:60px;"">+</div>","null","html-keyboard-response","393","340944","0.0-3.0-0.195","","fixation","","",""
"1328","Set1/070a.jpg","79","image-keyboard-response","394","342273","0.0-3.0-1.195","","","Repeat","o","true"
"null","<div style=""font-size:60px;"">+</div>","null","html-keyboard-response","395","342777","0.0-3.0-0.196","","fixation","","",""
"747","Set1/048a.jpg","78","image-keyboard-response","396","343525","0.0-3.0-1.196","","","Repeat","n","true"
"null","<div style=""font-size:60px;"">+</div>","null","html-keyboard-response","397","344027","0.0-3.0-0.197","","fixation","","",""
"931","Set1/122b.jpg","78","image-keyboard-response","398","344959","0.0-3.0-1.197","","","Update","n","true"
"null","<div style=""font-size:60px;"">+</div>","null","html-keyboard-response","399","345461","0.0-3.0-0.198","","fixation","","",""
"1106","Set1/156b.jpg","78","image-keyboard-response","400","346570","0.0-3.0-1.198","","","Update","n","true"
"null","<div style=""font-size:60px;"">+</div>","null","html-keyboard-response","401","347072","0.0-3.0-0.199","","fixation","","",""
"1939","Set1/097b.jpg","78","image-keyboard-response","402","349013","0.0-3.0-1.199","","","Update","n","true"
"null","<div style=""font-size:60px;"">+</div>","null","html-keyboard-response","403","349515","0.0-3.0-0.200","","fixation","","",""
"733","Set1/118b.jpg","78","image-keyboard-response","404","350251","0.0-3.0-1.200","","","Update","n","true"
"null","<div style=""font-size:60px;"">+</div>","null","html-keyboard-response","405","350754","0.0-3.0-0.201","","fixation","","",""
"907","Set1/183a.jpg","79","image-keyboard-response","406","351663","0.0-3.0-1.201","","","Set_2_Only","o","true"
"null","<div style=""font-size:60px;"">+</div>","null","html-keyboard-response","407","352166","0.0-3.0-0.202","","fixation","","",""
"1706","Set1/107b.jpg","78","image-keyboard-response","408","353873","0.0-3.0-1.202","","","Update","n","true"
"null","<div style=""font-size:60px;"">+</div>","null","html-keyboard-response","409","354376","0.0-3.0-0.203","","fixation","","",""
"2145","Set1/048a.jpg","78","image-keyboard-response","410","356522","0.0-3.0-1.203","","","Repeat","o","false"
"null","<div style=""font-size:60px;"">+</div>","null","html-keyboard-response","411","357024","0.0-3.0-0.204","","fixation","","",""
"2154","Set1/116b.jpg","79","image-keyboard-response","412","359180","0.0-3.0-1.204","","","Update","o","true"
"null","<div style=""font-size:60px;"">+</div>","null","html-keyboard-response","413","359682","0.0-3.0-0.205","","fixation","","",""
"3082","Set1/174a.jpg","78","image-keyboard-response","414","362767","0.0-3.0-1.205","","","Set_2_Only","n","true"
"null","<div style=""font-size:60px;"">+</div>","null","html-keyboard-response","415","363269","0.0-3.0-0.206","","fixation","","",""
"791","Set1/190a.jpg","78","image-keyboard-response","416","364062","0.0-3.0-1.206","","","Set_2_Only","n","true"
"null","<div style=""font-size:60px;"">+</div>","null","html-keyboard-response","417","364565","0.0-3.0-0.207","","fixation","","",""
"963","Set1/056a.jpg","79","image-keyboard-response","418","365530","0.0-3.0-1.207","","","Repeat","o","true"
"null","<div style=""font-size:60px;"">+</div>","null","html-keyboard-response","419","366033","0.0-3.0-0.208","","fixation","","",""
"1474","Set1/085a.jpg","78","image-keyboard-response","420","367510","0.0-3.0-1.208","","","Repeat","n","true"
"null","<div style=""font-size:60px;"">+</div>","null","html-keyboard-response","421","368012","0.0-3.0-0.209","","fixation","","",""
"1598","Set1/182a.jpg","78","image-keyboard-response","422","369613","0.0-3.0-1.209","","","Set_2_Only","o","false"
"null","<div style=""font-size:60px;"">+</div>","null","html-keyboard-response","423","370115","0.0-3.0-0.210","","fixation","","",""
"890","Set1/163a.jpg","78","image-keyboard-response","424","371008","0.0-3.0-1.210","","","Set_2_Only","n","true"
"null","<div style=""font-size:60px;"">+</div>","null","html-keyboard-response","425","371510","0.0-3.0-0.211","","fixation","","",""
"989","Set1/189a.jpg","78","image-keyboard-response","426","372500","0.0-3.0-1.211","","","Set_2_Only","n","true"
"null","<div style=""font-size:60px;"">+</div>","null","html-keyboard-response","427","373003","0.0-3.0-0.212","","fixation","","",""
"645","Set1/097b.jpg","79","image-keyboard-response","428","373649","0.0-3.0-1.212","","","Update","o","true"
"null","<div style=""font-size:60px;"">+</div>","null","html-keyboard-response","429","374152","0.0-3.0-0.213","","fixation","","",""
"605","Set1/113b.jpg","78","image-keyboard-response","430","374759","0.0-3.0-1.213","","","Update","o","false"
"null","<div style=""font-size:60px;"">+</div>","null","html-keyboard-response","431","375261","0.0-3.0-0.214","","fixation","","",""
"922","Set1/174a.jpg","78","image-keyboard-response","432","376186","0.0-3.0-1.214","","","Set_2_Only","o","false"
"null","<div style=""font-size:60px;"">+</div>","null","html-keyboard-response","433","376688","0.0-3.0-0.215","","fixation","","",""
"769","Set1/115b.jpg","78","image-keyboard-response","434","377461","0.0-3.0-1.215","","","Update","n","true"
"null","<div style=""font-size:60px;"">+</div>","null","html-keyboard-response","435","377963","0.0-3.0-0.216","","fixation","","",""
"823","Set1/124b.jpg","78","image-keyboard-response","436","378788","0.0-3.0-1.216","","","Update","o","false"
"null","<div style=""font-size:60px;"">+</div>","null","html-keyboard-response","437","379290","0.0-3.0-0.217","","fixation","","",""
"608","Set1/186a.jpg","78","image-keyboard-response","438","379901","0.0-3.0-1.217","","","Set_2_Only","n","true"
"null","<div style=""font-size:60px;"">+</div>","null","html-keyboard-response","439","380404","0.0-3.0-0.218","","fixation","","",""
"1205","Set1/169a.jpg","78","image-keyboard-response","440","381610","0.0-3.0-1.218","","","Set_2_Only","n","true"
"null","<div style=""font-size:60px;"">+</div>","null","html-keyboard-response","441","382112","0.0-3.0-0.219","","fixation","","",""
"640","Set1/192a.jpg","79","image-keyboard-response","442","382754","0.0-3.0-1.219","","","Set_2_Only","o","true"
"null","<div style=""font-size:60px;"">+</div>","null","html-keyboard-response","443","383257","0.0-3.0-0.220","","fixation","","",""
"694","Set1/163a.jpg","79","image-keyboard-response","444","383952","0.0-3.0-1.220","","","Set_2_Only","o","true"
"null","<div style=""font-size:60px;"">+</div>","null","html-keyboard-response","445","384455","0.0-3.0-0.221","","fixation","","",""
"842","Set1/118b.jpg","79","image-keyboard-response","446","385299","0.0-3.0-1.221","","","Update","o","true"
"null","<div style=""font-size:60px;"">+</div>","null","html-keyboard-response","447","385800","0.0-3.0-0.222","","fixation","","",""
"990","Set1/107b.jpg","78","image-keyboard-response","448","386794","0.0-3.0-1.222","","","Update","o","false"
"null","<div style=""font-size:60px;"">+</div>","null","html-keyboard-response","449","387296","0.0-3.0-0.223","","fixation","","",""
"639","Set1/062a.jpg","78","image-keyboard-response","450","387937","0.0-3.0-1.223","","","Repeat","n","true"
"null","<div style=""font-size:60px;"">+</div>","null","html-keyboard-response","451","388438","0.0-3.0-0.224","","fixation","","",""
"876","Set1/156b.jpg","78","image-keyboard-response","452","389316","0.0-3.0-1.224","","","Update","o","false"
"null","<div style=""font-size:60px;"">+</div>","null","html-keyboard-response","453","389819","0.0-3.0-0.225","","fixation","","",""
"842","Set1/186a.jpg","79","image-keyboard-response","454","390663","0.0-3.0-1.225","","","Set_2_Only","o","true"
"null","<div style=""font-size:60px;"">+</div>","null","html-keyboard-response","455","391165","0.0-3.0-0.226","","fixation","","",""
"889","Set1/045a.jpg","79","image-keyboard-response","456","392057","0.0-3.0-1.226","","","Repeat","o","true"
"null","<div style=""font-size:60px;"">+</div>","null","html-keyboard-response","457","392563","0.0-3.0-0.227","","fixation","","",""
"669","Set1/057a.jpg","78","image-keyboard-response","458","393233","0.0-3.0-1.227","","","Repeat","o","false"
"null","<div style=""font-size:60px;"">+</div>","null","html-keyboard-response","459","393736","0.0-3.0-0.228","","fixation","","",""
"700","Set1/184a.jpg","78","image-keyboard-response","460","394438","0.0-3.0-1.228","","","Set_2_Only","o","false"
"null","<div style=""font-size:60px;"">+</div>","null","html-keyboard-response","461","394940","0.0-3.0-0.229","","fixation","","",""
"588","Set1/165a.jpg","78","image-keyboard-response","462","395529","0.0-3.0-1.229","","","Set_2_Only","o","false"
"null","<div style=""font-size:60px;"">+</div>","null","html-keyboard-response","463","396033","0.0-3.0-0.230","","fixation","","",""
"445","Set1/062a.jpg","78","image-keyboard-response","464","396480","0.0-3.0-1.230","","","Repeat","o","false"
"null","<div style=""font-size:60px;"">+</div>","null","html-keyboard-response","465","396983","0.0-3.0-0.231","","fixation","","",""
"717","Set1/152b.jpg","78","image-keyboard-response","466","397702","0.0-3.0-1.231","","","Update","o","false"
"null","<div style=""font-size:60px;"">+</div>","null","html-keyboard-response","467","398203","0.0-3.0-0.232","","fixation","","",""
"592","Set1/053a.jpg","78","image-keyboard-response","468","398797","0.0-3.0-1.232","","","Repeat","o","false"
"null","<div style=""font-size:60px;"">+</div>","null","html-keyboard-response","469","399299","0.0-3.0-0.233","","fixation","","",""
"562","Set1/190a.jpg","78","image-keyboard-response","470","399863","0.0-3.0-1.233","","","Set_2_Only","o","false"
"null","<div style=""font-size:60px;"">+</div>","null","html-keyboard-response","471","400365","0.0-3.0-0.234","","fixation","","",""
"607","Set1/082a.jpg","78","image-keyboard-response","472","400975","0.0-3.0-1.234","","","Repeat","o","false"
"null","<div style=""font-size:60px;"">+</div>","null","html-keyboard-response","473","401476","0.0-3.0-0.235","","fixation","","",""
"625","Set1/085a.jpg","78","image-keyboard-response","474","402102","0.0-3.0-1.235","","","Repeat","o","false"
"null","<div style=""font-size:60px;"">+</div>","null","html-keyboard-response","475","402605","0.0-3.0-0.236","","fixation","","",""
"447","Set1/169a.jpg","78","image-keyboard-response","476","403054","0.0-3.0-1.236","","","Set_2_Only","o","false"
"null","<div style=""font-size:60px;"">+</div>","null","html-keyboard-response","477","403556","0.0-3.0-0.237","","fixation","","",""
"287","Set1/122b.jpg","78","image-keyboard-response","478","403845","0.0-3.0-1.237","","","Update","o","false"
"null","<div style=""font-size:60px;"">+</div>","null","html-keyboard-response","479","404347","0.0-3.0-0.238","","fixation","","",""
"1050","Set1/189a.jpg","79","image-keyboard-response","480","405399","0.0-3.0-1.238","","","Set_2_Only","o","true"
"null","<div style=""font-size:60px;"">+</div>","null","html-keyboard-response","481","405902","0.0-3.0-0.239","","fixation","","",""
"718","Set1/115b.jpg","79","image-keyboard-response","482","406622","0.0-3.0-1.239","","","Update","o","true"
"null","<div style=""font-size:60px;"">+</div>","null","html-keyboard-response","483","407124","0.0-3.0-0.240","","fixation","","",""
"772","Set1/081a.jpg","78","image-keyboard-response","484","407897","0.0-3.0-1.240","","","Repeat","n","true"
"null","<div style=""font-size:60px;"">+</div>","null","html-keyboard-response","485","408400","0.0-3.0-0.241","","fixation","","",""
"654","Set1/166a.jpg","78","image-keyboard-response","486","409056","0.0-3.0-1.241","","","Set_2_Only","n","true"
"null","<div style=""font-size:60px;"">+</div>","null","html-keyboard-response","487","409558","0.0-3.0-0.242","","fixation","","",""
"691","Set1/111b.jpg","78","image-keyboard-response","488","410251","0.0-3.0-1.242","","","Update","n","true"
"null","<div style=""font-size:60px;"">+</div>","null","html-keyboard-response","489","410754","0.0-3.0-0.243","","fixation","","",""
"1594","Set1/063a.jpg","78","image-keyboard-response","490","412350","0.0-3.0-1.243","","","Repeat","n","true"
"null","<div style=""font-size:60px;"">+</div>","null","html-keyboard-response","491","412853","0.0-3.0-0.244","","fixation","","",""
"3620","Set1/127b.jpg","78","image-keyboard-response","492","416474","0.0-3.0-1.244","","","Update","n","true"
"null","<div style=""font-size:60px;"">+</div>","null","html-keyboard-response","493","416977","0.0-3.0-0.245","","fixation","","",""
"2765","Set1/077a.jpg","78","image-keyboard-response","494","419744","0.0-3.0-1.245","","","Repeat","n","true"
"null","<div style=""font-size:60px;"">+</div>","null","html-keyboard-response","495","420247","0.0-3.0-0.246","","fixation","","",""
"1588","Set1/117b.jpg","78","image-keyboard-response","496","421838","0.0-3.0-1.246","","","Update","n","true"
"null","<div style=""font-size:60px;"">+</div>","null","html-keyboard-response","497","422340","0.0-3.0-0.247","","fixation","","",""
"1721","Set1/110b.jpg","78","image-keyboard-response","498","424064","0.0-3.0-1.247","","","Update","n","true"
"null","<div style=""font-size:60px;"">+</div>","null","html-keyboard-response","499","424565","0.0-3.0-0.248","","fixation","","",""
"1840","Set1/137b.jpg","78","image-keyboard-response","500","426407","0.0-3.0-1.248","","","Update","n","true"
"null","<div style=""font-size:60px;"">+</div>","null","html-keyboard-response","501","426909","0.0-3.0-0.249","","fixation","","",""
"1908","Set1/146b.jpg","78","image-keyboard-response","502","428819","0.0-3.0-1.249","","","Update","n","true"
"null","<div style=""font-size:60px;"">+</div>","null","html-keyboard-response","503","429321","0.0-3.0-0.250","","fixation","","",""
"1347","Set1/164a.jpg","78","image-keyboard-response","504","430670","0.0-3.0-1.250","","","Set_2_Only","n","true"
"null","<div style=""font-size:60px;"">+</div>","null","html-keyboard-response","505","431173","0.0-3.0-0.251","","fixation","","",""
"1750","Set1/132b.jpg","78","image-keyboard-response","506","432924","0.0-3.0-1.251","","","Update","n","true"
"null","<div style=""font-size:60px;"">+</div>","null","html-keyboard-response","507","433426","0.0-3.0-0.252","","fixation","","",""
"1751","Set1/136b.jpg","78","image-keyboard-response","508","435178","0.0-3.0-1.252","","","Update","n","true"
"null","<div style=""font-size:60px;"">+</div>","null","html-keyboard-response","509","435680","0.0-3.0-0.253","","fixation","","",""
"1634","Set1/072a.jpg","78","image-keyboard-response","510","437316","0.0-3.0-1.253","","","Repeat","n","true"
"null","<div style=""font-size:60px;"">+</div>","null","html-keyboard-response","511","437819","0.0-3.0-0.254","","fixation","","",""
"843","Set1/049a.jpg","79","image-keyboard-response","512","438663","0.0-3.0-1.254","","","Repeat","n","false"
"null","<div style=""font-size:60px;"">+</div>","null","html-keyboard-response","513","439165","0.0-3.0-0.255","","fixation","","",""
"1064","Set1/133b.jpg","78","image-keyboard-response","514","440230","0.0-3.0-1.255","","","Update","n","true"
"null","<div style=""font-size:60px;"">+</div>","null","html-keyboard-response","515","440732","0.0-3.0-0.256","","fixation","","",""
"1025","Set1/109b.jpg","78","image-keyboard-response","516","441759","0.0-3.0-1.256","","","Update","n","true"
"null","<div style=""font-size:60px;"">+</div>","null","html-keyboard-response","517","442262","0.0-3.0-0.257","","fixation","","",""
"1874","Set1/121b.jpg","78","image-keyboard-response","518","444138","0.0-3.0-1.257","","","Update","n","true"
"null","<div style=""font-size:60px;"">+</div>","null","html-keyboard-response","519","444641","0.0-3.0-0.258","","fixation","","",""
"1592","Set1/111b.jpg","78","image-keyboard-response","520","446235","0.0-3.0-1.258","","","Update","o","false"
"null","<div style=""font-size:60px;"">+</div>","null","html-keyboard-response","521","446739","0.0-3.0-0.259","","fixation","","",""
"835","Set1/129b.jpg","78","image-keyboard-response","522","447575","0.0-3.0-1.259","","","Update","n","true"
"null","<div style=""font-size:60px;"">+</div>","null","html-keyboard-response","523","448077","0.0-3.0-0.260","","fixation","","",""
"2556","Set1/088a.jpg","78","image-keyboard-response","524","450635","0.0-3.0-1.260","","","Repeat","n","true"
"null","<div style=""font-size:60px;"">+</div>","null","html-keyboard-response","525","451136","0.0-3.0-0.261","","fixation","","",""
"1512","Set1/136b.jpg","78","image-keyboard-response","526","452650","0.0-3.0-1.261","","","Update","o","false"
"null","<div style=""font-size:60px;"">+</div>","null","html-keyboard-response","527","453153","0.0-3.0-0.262","","fixation","","",""
"1250","Set1/088a.jpg","78","image-keyboard-response","528","454405","0.0-3.0-1.262","","","Repeat","o","false"
"null","<div style=""font-size:60px;"">+</div>","null","html-keyboard-response","529","454907","0.0-3.0-0.263","","fixation","","",""
"1601","Set1/125b.jpg","79","image-keyboard-response","530","456510","0.0-3.0-1.263","","","Update","n","false"
"null","<div style=""font-size:60px;"">+</div>","null","html-keyboard-response","531","457011","0.0-3.0-0.264","","fixation","","",""
"1224","Set1/054a.jpg","78","image-keyboard-response","532","458236","0.0-3.0-1.264","","","Repeat","n","true"
"null","<div style=""font-size:60px;"">+</div>","null","html-keyboard-response","533","458738","0.0-3.0-0.265","","fixation","","",""
"659","Set1/099b.jpg","78","image-keyboard-response","534","459399","0.0-3.0-1.265","","","Update","n","true"
"null","<div style=""font-size:60px;"">+</div>","null","html-keyboard-response","535","459901","0.0-3.0-0.266","","fixation","","",""
"620","Set1/166a.jpg","79","image-keyboard-response","536","460522","0.0-3.0-1.266","","","Set_2_Only","o","true"
"null","<div style=""font-size:60px;"">+</div>","null","html-keyboard-response","537","461024","0.0-3.0-0.267","","fixation","","",""
"751","Set1/093a.jpg","78","image-keyboard-response","538","461776","0.0-3.0-1.267","","","Repeat","n","true"
"null","<div style=""font-size:60px;"">+</div>","null","html-keyboard-response","539","462278","0.0-3.0-0.268","","fixation","","",""
"817","Set1/060a.jpg","78","image-keyboard-response","540","463096","0.0-3.0-1.268","","","Repeat","n","true"
"null","<div style=""font-size:60px;"">+</div>","null","html-keyboard-response","541","463599","0.0-3.0-0.269","","fixation","","",""
"1354","Set1/110b.jpg","78","image-keyboard-response","542","464955","0.0-3.0-1.269","","","Update","o","false"
"null","<div style=""font-size:60px;"">+</div>","null","html-keyboard-response","543","465458","0.0-3.0-0.270","","fixation","","",""
"2063","Set1/093a.jpg","78","image-keyboard-response","544","467523","0.0-3.0-1.270","","","Repeat","o","false"
"null","<div style=""font-size:60px;"">+</div>","null","html-keyboard-response","545","468025","0.0-3.0-0.271","","fixation","","",""
"808","Set1/180a.jpg","78","image-keyboard-response","546","468835","0.0-3.0-1.271","","","Set_2_Only","n","true"
"null","<div style=""font-size:60px;"">+</div>","null","html-keyboard-response","547","469339","0.0-3.0-0.272","","fixation","","",""
"1692","Set1/120b.jpg","78","image-keyboard-response","548","471032","0.0-3.0-1.272","","","Update","n","true"
"null","<div style=""font-size:60px;"">+</div>","null","html-keyboard-response","549","471535","0.0-3.0-0.273","","fixation","","",""
"824","Set1/178a.jpg","78","image-keyboard-response","550","472360","0.0-3.0-1.273","","","Set_2_Only","n","true"
"null","<div style=""font-size:60px;"">+</div>","null","html-keyboard-response","551","472862","0.0-3.0-0.274","","fixation","","",""
"1302","Set1/079a.jpg","78","image-keyboard-response","552","474166","0.0-3.0-1.274","","","Repeat","n","true"
"null","<div style=""font-size:60px;"">+</div>","null","html-keyboard-response","553","474668","0.0-3.0-0.275","","fixation","","",""
"1274","Set1/151b.jpg","78","image-keyboard-response","554","475943","0.0-3.0-1.275","","","Update","n","true"
"null","<div style=""font-size:60px;"">+</div>","null","html-keyboard-response","555","476446","0.0-3.0-0.276","","fixation","","",""
"1213","Set1/181a.jpg","78","image-keyboard-response","556","477660","0.0-3.0-1.276","","","Set_2_Only","n","true"
"null","<div style=""font-size:60px;"">+</div>","null","html-keyboard-response","557","478164","0.0-3.0-0.277","","fixation","","",""
"921","Set1/099b.jpg","79","image-keyboard-response","558","479088","0.0-3.0-1.277","","","Update","o","true"
"null","<div style=""font-size:60px;"">+</div>","null","html-keyboard-response","559","479590","0.0-3.0-0.278","","fixation","","",""
"756","Set1/102b.jpg","78","image-keyboard-response","560","480347","0.0-3.0-1.278","","","Update","n","true"
"null","<div style=""font-size:60px;"">+</div>","null","html-keyboard-response","561","480849","0.0-3.0-0.279","","fixation","","",""
"702","Set1/167a.jpg","78","image-keyboard-response","562","481553","0.0-3.0-1.279","","","Set_2_Only","n","true"
"null","<div style=""font-size:60px;"">+</div>","null","html-keyboard-response","563","482056","0.0-3.0-0.280","","fixation","","",""
"677","Set1/102b.jpg","79","image-keyboard-response","564","482734","0.0-3.0-1.280","","","Update","o","true"
"null","<div style=""font-size:60px;"">+</div>","null","html-keyboard-response","565","483237","0.0-3.0-0.281","","fixation","","",""
"998","Set1/092a.jpg","78","image-keyboard-response","566","484236","0.0-3.0-1.281","","","Repeat","n","true"
"null","<div style=""font-size:60px;"">+</div>","null","html-keyboard-response","567","484738","0.0-3.0-0.282","","fixation","","",""
"1348","Set1/081a.jpg","78","image-keyboard-response","568","486090","0.0-3.0-1.282","","","Repeat","o","false"
"null","<div style=""font-size:60px;"">+</div>","null","html-keyboard-response","569","486593","0.0-3.0-0.283","","fixation","","",""
"973","Set1/120b.jpg","78","image-keyboard-response","570","487567","0.0-3.0-1.283","","","Update","o","false"
"null","<div style=""font-size:60px;"">+</div>","null","html-keyboard-response","571","488070","0.0-3.0-0.284","","fixation","","",""
"908","Set1/076a.jpg","78","image-keyboard-response","572","488980","0.0-3.0-1.284","","","Repeat","n","true"
"null","<div style=""font-size:60px;"">+</div>","null","html-keyboard-response","573","489482","0.0-3.0-0.285","","fixation","","",""
"766","Set1/033a.jpg","78","image-keyboard-response","574","490250","0.0-3.0-1.285","","","Repeat","n","true"
"null","<div style=""font-size:60px;"">+</div>","null","html-keyboard-response","575","490752","0.0-3.0-0.286","","fixation","","",""
"1149","Set1/125b.jpg","79","image-keyboard-response","576","491902","0.0-3.0-1.286","","","Update","o","true"
"null","<div style=""font-size:60px;"">+</div>","null","html-keyboard-response","577","492405","0.0-3.0-0.287","","fixation","","",""
"891","Set1/127b.jpg","78","image-keyboard-response","578","493297","0.0-3.0-1.287","","","Update","o","false"
"null","<div style=""font-size:60px;"">+</div>","null","html-keyboard-response","579","493800","0.0-3.0-0.288","","fixation","","",""
"1288","Set1/092a.jpg","78","image-keyboard-response","580","495091","0.0-3.0-1.288","","","Repeat","o","false"
"null","<div style=""font-size:60px;"">+</div>","null","html-keyboard-response","581","495593","0.0-3.0-0.289","","fixation","","",""
"722","Set1/181a.jpg","78","image-keyboard-response","582","496317","0.0-3.0-1.289","","","Set_2_Only","o","false"
"null","<div style=""font-size:60px;"">+</div>","null","html-keyboard-response","583","496821","0.0-3.0-0.290","","fixation","","",""
"1147","Set1/086a.jpg","78","image-keyboard-response","584","497970","0.0-3.0-1.290","","","Repeat","n","true"
"null","<div style=""font-size:60px;"">+</div>","null","html-keyboard-response","585","498472","0.0-3.0-0.291","","fixation","","",""
"1046","Set1/109b.jpg","79","image-keyboard-response","586","499520","0.0-3.0-1.291","","","Update","o","true"
"null","<div style=""font-size:60px;"">+</div>","null","html-keyboard-response","587","500023","0.0-3.0-0.292","","fixation","","",""
"634","Set1/167a.jpg","79","image-keyboard-response","588","500659","0.0-3.0-1.292","","","Set_2_Only","o","true"
"null","<div style=""font-size:60px;"">+</div>","null","html-keyboard-response","589","501162","0.0-3.0-0.293","","fixation","","",""
"720","Set1/129b.jpg","78","image-keyboard-response","590","501883","0.0-3.0-1.293","","","Update","o","false"
"null","<div style=""font-size:60px;"">+</div>","null","html-keyboard-response","591","502386","0.0-3.0-0.294","","fixation","","",""
"862","Set1/180a.jpg","78","image-keyboard-response","592","503250","0.0-3.0-1.294","","","Set_2_Only","o","false"
"null","<div style=""font-size:60px;"">+</div>","null","html-keyboard-response","593","503753","0.0-3.0-0.295","","fixation","","",""
"775","Set1/121b.jpg","79","image-keyboard-response","594","504530","0.0-3.0-1.295","","","Update","o","true"
"null","<div style=""font-size:60px;"">+</div>","null","html-keyboard-response","595","505033","0.0-3.0-0.296","","fixation","","",""
"1163","Set1/178a.jpg","78","image-keyboard-response","596","506198","0.0-3.0-1.296","","","Set_2_Only","o","false"
"null","<div style=""font-size:60px;"">+</div>","null","html-keyboard-response","597","506701","0.0-3.0-0.297","","fixation","","",""
"1052","Set1/094a.jpg","78","image-keyboard-response","598","507754","0.0-3.0-1.297","","","Repeat","n","true"
"null","<div style=""font-size:60px;"">+</div>","null","html-keyboard-response","599","508257","0.0-3.0-0.298","","fixation","","",""
"584","Set1/137b.jpg","78","image-keyboard-response","600","508844","0.0-3.0-1.298","","","Update","o","false"
"null","<div style=""font-size:60px;"">+</div>","null","html-keyboard-response","601","509346","0.0-3.0-0.299","","fixation","","",""
"1834","Set1/060a.jpg","79","image-keyboard-response","602","511182","0.0-3.0-1.299","","","Repeat","o","true"
"null","<div style=""font-size:60px;"">+</div>","null","html-keyboard-response","603","511684","0.0-3.0-0.300","","fixation","","",""
"1070","Set1/133b.jpg","78","image-keyboard-response","604","512757","0.0-3.0-1.300","","","Update","o","false"
"null","<div style=""font-size:60px;"">+</div>","null","html-keyboard-response","605","513259","0.0-3.0-0.301","","fixation","","",""
"1019","Set1/164a.jpg","78","image-keyboard-response","606","514279","0.0-3.0-1.301","","","Set_2_Only","o","false"
"null","<div style=""font-size:60px;"">+</div>","null","html-keyboard-response","607","514782","0.0-3.0-0.302","","fixation","","",""
"1370","Set1/054a.jpg","78","image-keyboard-response","608","516153","0.0-3.0-1.302","","","Repeat","o","false"
"null","<div style=""font-size:60px;"">+</div>","null","html-keyboard-response","609","516656","0.0-3.0-0.303","","fixation","","",""
"982","Set1/117b.jpg","78","image-keyboard-response","610","517639","0.0-3.0-1.303","","","Update","o","false"
"null","<div style=""font-size:60px;"">+</div>","null","html-keyboard-response","611","518143","0.0-3.0-0.304","","fixation","","",""
"1045","Set1/049a.jpg","79","image-keyboard-response","612","519190","0.0-3.0-1.304","","","Repeat","o","true"
"null","<div style=""font-size:60px;"">+</div>","null","html-keyboard-response","613","519693","0.0-3.0-0.305","","fixation","","",""
"1231","Set1/132b.jpg","78","image-keyboard-response","614","520927","0.0-3.0-1.305","","","Update","o","false"
"null","<div style=""font-size:60px;"">+</div>","null","html-keyboard-response","615","521431","0.0-3.0-0.306","","fixation","","",""
"1863","Set1/151b.jpg","78","image-keyboard-response","616","523297","0.0-3.0-1.306","","","Update","o","false"
"null","<div style=""font-size:60px;"">+</div>","null","html-keyboard-response","617","523800","0.0-3.0-0.307","","fixation","","",""
"869","Set1/086a.jpg","78","image-keyboard-response","618","524671","0.0-3.0-1.307","","","Repeat","o","false"
"null","<div style=""font-size:60px;"">+</div>","null","html-keyboard-response","619","525173","0.0-3.0-0.308","","fixation","","",""
"676","Set1/160b.jpg","78","image-keyboard-response","620","525852","0.0-3.0-1.308","","","Update","n","true"
"null","<div style=""font-size:60px;"">+</div>","null","html-keyboard-response","621","526355","0.0-3.0-0.309","","fixation","","",""
"825","Set1/094a.jpg","79","image-keyboard-response","622","527182","0.0-3.0-1.309","","","Repeat","o","true"
"null","<div style=""font-size:60px;"">+</div>","null","html-keyboard-response","623","527684","0.0-3.0-0.310","","fixation","","",""
"985","Set1/146b.jpg","78","image-keyboard-response","624","528671","0.0-3.0-1.310","","","Update","o","false"
"null","<div style=""font-size:60px;"">+</div>","null","html-keyboard-response","625","529173","0.0-3.0-0.311","","fixation","","",""
"1156","Set1/160b.jpg","78","image-keyboard-response","626","530331","0.0-3.0-1.311","","","Update","o","false"
"null","<div style=""font-size:60px;"">+</div>","null","html-keyboard-response","627","530834","0.0-3.0-0.312","","fixation","","",""
"1172","Set1/072a.jpg","78","image-keyboard-response","628","532007","0.0-3.0-1.312","","","Repeat","o","false"
"null","<div style=""font-size:60px;"">+</div>","null","html-keyboard-response","629","532510","0.0-3.0-0.313","","fixation","","",""
"1036","Set1/076a.jpg","78","image-keyboard-response","630","533548","0.0-3.0-1.313","","","Repeat","o","false"
"null","<div style=""font-size:60px;"">+</div>","null","html-keyboard-response","631","534050","0.0-3.0-0.314","","fixation","","",""
"960","Set1/079a.jpg","79","image-keyboard-response","632","535013","0.0-3.0-1.314","","","Repeat","o","true"
"null","<div style=""font-size:60px;"">+</div>","null","html-keyboard-response","633","535516","0.0-3.0-0.315","","fixation","","",""
"840","Set1/033a.jpg","78","image-keyboard-response","634","536358","0.0-3.0-1.315","","","Repeat","o","false"
"null","<div style=""font-size:60px;"">+</div>","null","html-keyboard-response","635","536861","0.0-3.0-0.316","","fixation","","",""
"2082","Set1/051a.jpg","79","image-keyboard-response","636","538944","0.0-3.0-1.316","","","Repeat","n","false"
"null","<div style=""font-size:60px;"">+</div>","null","html-keyboard-response","637","539447","0.0-3.0-0.317","","fixation","","",""
"833","Set1/077a.jpg","79","image-keyboard-response","638","540283","0.0-3.0-1.317","","","Repeat","o","true"
"null","<div style=""font-size:60px;"">+</div>","null","html-keyboard-response","639","540786","0.0-3.0-0.318","","fixation","","",""
"674","Set1/051a.jpg","79","image-keyboard-response","640","541462","0.0-3.0-1.318","","","Repeat","o","true"
"null","<div style=""font-size:60px;"">+</div>","null","html-keyboard-response","641","541965","0.0-3.0-0.319","","fixation","","",""
"721","Set1/063a.jpg","79","image-keyboard-response","642","542688","0.0-3.0-1.319","","","Repeat","o","true"
