"rt","stimulus","key_press","trial_type","trial_index","time_elapsed","internal_node_id","responses","test_part","stim_type","correct_response","correct"
"19173","Press any key to begin.","78","html-keyboard-response","0","19181","0.0-0.0","","","","",""
"2934","","","survey-text","1","22117","0.0-1.0","{""Q0"":""Set2_128714"",""Q1"":""Set2_128714""}","","","",""
"37701","<p>In this experiment you will see a series of everyday objects presented one at a time at the center of the screen. Each image will be presented twice.</p><p>The first time you see the image, press the N key to indicat that it is a NEW image. The second time you see the image, press the O key to indicate that it is an OLD image.</p><p>Some of the images will be repeats from the first session of this task you did yesterday. I want you to treat those images as 'OLD' if you remember seeing them before. Some of the images will be very similar but not identical to an image that you have seen in the previous set. I want you to treat those images as 'NEW' the first time you see them and 'OLD' the second time.</p><div style='width: 700px;'></div><p>Press any key to begin.</p>","78","html-keyboard-response","2","59820","0.0-2.0","","","","",""
"null","<div style=""font-size:60px;"">+</div>","null","html-keyboard-response","3","62327","0.0-3.0-0.0","","fixation","","",""
"690","Set1/037a.jpg","78","image-keyboard-response","4","63019","0.0-3.0-1.0","","","Repeat","n","true"
"null","<div style=""font-size:60px;"">+</div>","null","html-keyboard-response","5","63522","0.0-3.0-0.1","","fixation","","",""
"1097","Set1/095a.jpg","79","image-keyboard-response","6","64620","0.0-3.0-1.1","","","Repeat","n","false"
"null","<div style=""font-size:60px;"">+</div>","null","html-keyboard-response","7","65125","0.0-3.0-0.2","","fixation","","",""
"942","Set1/080a.jpg","79","image-keyboard-response","8","66067","0.0-3.0-1.2","","","Repeat","n","false"
"null","<div style=""font-size:60px;"">+</div>","null","html-keyboard-response","9","66572","0.0-3.0-0.3","","fixation","","",""
"1030","Set1/142b.jpg","78","image-keyboard-response","10","67603","0.0-3.0-1.3","","","Update","n","true"
"null","<div style=""font-size:60px;"">+</div>","null","html-keyboard-response","11","68106","0.0-3.0-0.4","","fixation","","",""
"984","Set1/179a.jpg","78","image-keyboard-response","12","69092","0.0-3.0-1.4","","","Set_2_Only","n","true"
"null","<div style=""font-size:60px;"">+</div>","null","html-keyboard-response","13","69597","0.0-3.0-0.5","","fixation","","",""
"798","Set1/039a.jpg","79","image-keyboard-response","14","70395","0.0-3.0-1.5","","","Repeat","n","false"
"null","<div style=""font-size:60px;"">+</div>","null","html-keyboard-response","15","70899","0.0-3.0-0.6","","fixation","","",""
"752","Set1/172a.jpg","78","image-keyboard-response","16","71651","0.0-3.0-1.6","","","Set_2_Only","n","true"
"null","<div style=""font-size:60px;"">+</div>","null","html-keyboard-response","17","72155","0.0-3.0-0.7","","fixation","","",""
"1071","Set1/075a.jpg","79","image-keyboard-response","18","73227","0.0-3.0-1.7","","","Repeat","n","false"
"null","<div style=""font-size:60px;"">+</div>","null","html-keyboard-response","19","73732","0.0-3.0-0.8","","fixation","","",""
"813","Set1/090a.jpg","79","image-keyboard-response","20","74547","0.0-3.0-1.8","","","Repeat","n","false"
"null","<div style=""font-size:60px;"">+</div>","null","html-keyboard-response","21","75052","0.0-3.0-0.9","","fixation","","",""
"807","Set1/148b.jpg","79","image-keyboard-response","22","75859","0.0-3.0-1.9","","","Update","n","false"
"null","<div style=""font-size:60px;"">+</div>","null","html-keyboard-response","23","76364","0.0-3.0-0.10","","fixation","","",""
"1478","Set1/172a.jpg","79","image-keyboard-response","24","77843","0.0-3.0-1.10","","","Set_2_Only","o","true"
"null","<div style=""font-size:60px;"">+</div>","null","html-keyboard-response","25","78349","0.0-3.0-0.11","","fixation","","",""
"1046","Set1/035a.jpg","78","image-keyboard-response","26","79395","0.0-3.0-1.11","","","Repeat","n","true"
"null","<div style=""font-size:60px;"">+</div>","null","html-keyboard-response","27","79896","0.0-3.0-0.12","","fixation","","",""
"1226","Set1/170a.jpg","78","image-keyboard-response","28","81123","0.0-3.0-1.12","","","Set_2_Only","n","true"
"null","<div style=""font-size:60px;"">+</div>","null","html-keyboard-response","29","81625","0.0-3.0-0.13","","fixation","","",""
"929","Set1/179a.jpg","79","image-keyboard-response","30","82555","0.0-3.0-1.13","","","Set_2_Only","o","true"
"null","<div style=""font-size:60px;"">+</div>","null","html-keyboard-response","31","83057","0.0-3.0-0.14","","fixation","","",""
"937","Set1/153b.jpg","78","image-keyboard-response","32","83995","0.0-3.0-1.14","","","Update","n","true"
"null","<div style=""font-size:60px;"">+</div>","null","html-keyboard-response","33","84500","0.0-3.0-0.15","","fixation","","",""
"806","Set1/083a.jpg","78","image-keyboard-response","34","85307","0.0-3.0-1.15","","","Repeat","n","true"
"null","<div style=""font-size:60px;"">+</div>","null","html-keyboard-response","35","85807","0.0-3.0-0.16","","fixation","","",""
"1170","Set1/126b.jpg","78","image-keyboard-response","36","86978","0.0-3.0-1.16","","","Update","n","true"
"null","<div style=""font-size:60px;"">+</div>","null","html-keyboard-response","37","87484","0.0-3.0-0.17","","fixation","","",""
"1526","Set1/135b.jpg","78","image-keyboard-response","38","89011","0.0-3.0-1.17","","","Update","n","true"
"null","<div style=""font-size:60px;"">+</div>","null","html-keyboard-response","39","89516","0.0-3.0-0.18","","fixation","","",""
"1367","Set1/108b.jpg","79","image-keyboard-response","40","90883","0.0-3.0-1.18","","","Update","n","false"
"null","<div style=""font-size:60px;"">+</div>","null","html-keyboard-response","41","91385","0.0-3.0-0.19","","fixation","","",""
"832","Set1/142b.jpg","79","image-keyboard-response","42","92218","0.0-3.0-1.19","","","Update","o","true"
"null","<div style=""font-size:60px;"">+</div>","null","html-keyboard-response","43","92719","0.0-3.0-0.20","","fixation","","",""
"1330","Set1/138b.jpg","78","image-keyboard-response","44","94050","0.0-3.0-1.20","","","Update","n","true"
"null","<div style=""font-size:60px;"">+</div>","null","html-keyboard-response","45","94552","0.0-3.0-0.21","","fixation","","",""
"1010","Set1/171a.jpg","78","image-keyboard-response","46","95562","0.0-3.0-1.21","","","Set_2_Only","n","true"
"null","<div style=""font-size:60px;"">+</div>","null","html-keyboard-response","47","96064","0.0-3.0-0.22","","fixation","","",""
"970","Set1/148b.jpg","79","image-keyboard-response","48","97034","0.0-3.0-1.22","","","Update","o","true"
"null","<div style=""font-size:60px;"">+</div>","null","html-keyboard-response","49","97539","0.0-3.0-0.23","","fixation","","",""
"930","Set1/083a.jpg","78","image-keyboard-response","50","98471","0.0-3.0-1.23","","","Repeat","o","false"
"null","<div style=""font-size:60px;"">+</div>","null","html-keyboard-response","51","98976","0.0-3.0-0.24","","fixation","","",""
"1346","Set1/141b.jpg","78","image-keyboard-response","52","100322","0.0-3.0-1.24","","","Update","n","true"
"null","<div style=""font-size:60px;"">+</div>","null","html-keyboard-response","53","100824","0.0-3.0-0.25","","fixation","","",""
"1185","Set1/123b.jpg","78","image-keyboard-response","54","102011","0.0-3.0-1.25","","","Update","n","true"
"null","<div style=""font-size:60px;"">+</div>","null","html-keyboard-response","55","102516","0.0-3.0-0.26","","fixation","","",""
"1181","Set1/145b.jpg","78","image-keyboard-response","56","103697","0.0-3.0-1.26","","","Update","n","true"
"null","<div style=""font-size:60px;"">+</div>","null","html-keyboard-response","57","104203","0.0-3.0-0.27","","fixation","","",""
"759","Set1/175a.jpg","78","image-keyboard-response","58","104962","0.0-3.0-1.27","","","Set_2_Only","n","true"
"null","<div style=""font-size:60px;"">+</div>","null","html-keyboard-response","59","105466","0.0-3.0-0.28","","fixation","","",""
"791","Set1/177a.jpg","78","image-keyboard-response","60","106258","0.0-3.0-1.28","","","Set_2_Only","n","true"
"null","<div style=""font-size:60px;"">+</div>","null","html-keyboard-response","61","106762","0.0-3.0-0.29","","fixation","","",""
"1816","Set1/119b.jpg","78","image-keyboard-response","62","108578","0.0-3.0-1.29","","","Update","n","true"
"null","<div style=""font-size:60px;"">+</div>","null","html-keyboard-response","63","109083","0.0-3.0-0.30","","fixation","","",""
"838","Set1/177a.jpg","79","image-keyboard-response","64","109923","0.0-3.0-1.30","","","Set_2_Only","o","true"
"null","<div style=""font-size:60px;"">+</div>","null","html-keyboard-response","65","110428","0.0-3.0-0.31","","fixation","","",""
"1382","Set1/038a.jpg","79","image-keyboard-response","66","111810","0.0-3.0-1.31","","","Repeat","n","false"
"null","<div style=""font-size:60px;"">+</div>","null","html-keyboard-response","67","112315","0.0-3.0-0.32","","fixation","","",""
"710","Set1/035a.jpg","79","image-keyboard-response","68","113026","0.0-3.0-1.32","","","Repeat","o","true"
"null","<div style=""font-size:60px;"">+</div>","null","html-keyboard-response","69","113534","0.0-3.0-0.33","","fixation","","",""
"1035","Set1/171a.jpg","79","image-keyboard-response","70","114570","0.0-3.0-1.33","","","Set_2_Only","o","true"
"null","<div style=""font-size:60px;"">+</div>","null","html-keyboard-response","71","115075","0.0-3.0-0.34","","fixation","","",""
"1294","Set1/157b.jpg","78","image-keyboard-response","72","116369","0.0-3.0-1.34","","","Update","n","true"
"null","<div style=""font-size:60px;"">+</div>","null","html-keyboard-response","73","116875","0.0-3.0-0.35","","fixation","","",""
"877","Set1/170a.jpg","79","image-keyboard-response","74","117753","0.0-3.0-1.35","","","Set_2_Only","o","true"
"null","<div style=""font-size:60px;"">+</div>","null","html-keyboard-response","75","118259","0.0-3.0-0.36","","fixation","","",""
"934","Set1/135b.jpg","79","image-keyboard-response","76","119194","0.0-3.0-1.36","","","Update","o","true"
"null","<div style=""font-size:60px;"">+</div>","null","html-keyboard-response","77","119699","0.0-3.0-0.37","","fixation","","",""
"742","Set1/090a.jpg","79","image-keyboard-response","78","120441","0.0-3.0-1.37","","","Repeat","o","true"
"null","<div style=""font-size:60px;"">+</div>","null","html-keyboard-response","79","120943","0.0-3.0-0.38","","fixation","","",""
"658","Set1/095a.jpg","79","image-keyboard-response","80","121602","0.0-3.0-1.38","","","Repeat","o","true"
"null","<div style=""font-size:60px;"">+</div>","null","html-keyboard-response","81","122107","0.0-3.0-0.39","","fixation","","",""
"614","Set1/108b.jpg","79","image-keyboard-response","82","122721","0.0-3.0-1.39","","","Update","o","true"
"null","<div style=""font-size:60px;"">+</div>","null","html-keyboard-response","83","123223","0.0-3.0-0.40","","fixation","","",""
"1514","Set1/040a.jpg","78","image-keyboard-response","84","124738","0.0-3.0-1.40","","","Repeat","n","true"
"null","<div style=""font-size:60px;"">+</div>","null","html-keyboard-response","85","125239","0.0-3.0-0.41","","fixation","","",""
"890","Set1/058a.jpg","78","image-keyboard-response","86","126129","0.0-3.0-1.41","","","Repeat","n","true"
"null","<div style=""font-size:60px;"">+</div>","null","html-keyboard-response","87","126635","0.0-3.0-0.42","","fixation","","",""
"1022","Set1/140b.jpg","78","image-keyboard-response","88","127657","0.0-3.0-1.42","","","Update","n","true"
"null","<div style=""font-size:60px;"">+</div>","null","html-keyboard-response","89","128162","0.0-3.0-0.43","","fixation","","",""
"838","Set1/037a.jpg","79","image-keyboard-response","90","129001","0.0-3.0-1.43","","","Repeat","o","true"
"null","<div style=""font-size:60px;"">+</div>","null","html-keyboard-response","91","129502","0.0-3.0-0.44","","fixation","","",""
"842","Set1/153b.jpg","79","image-keyboard-response","92","130345","0.0-3.0-1.44","","","Update","o","true"
"null","<div style=""font-size:60px;"">+</div>","null","html-keyboard-response","93","130846","0.0-3.0-0.45","","fixation","","",""
"915","Set1/168a.jpg","78","image-keyboard-response","94","131761","0.0-3.0-1.45","","","Set_2_Only","n","true"
"null","<div style=""font-size:60px;"">+</div>","null","html-keyboard-response","95","132264","0.0-3.0-0.46","","fixation","","",""
"872","Set1/091a.jpg","78","image-keyboard-response","96","133137","0.0-3.0-1.46","","","Repeat","n","true"
"null","<div style=""font-size:60px;"">+</div>","null","html-keyboard-response","97","133642","0.0-3.0-0.47","","fixation","","",""
"821","Set1/119b.jpg","79","image-keyboard-response","98","134464","0.0-3.0-1.47","","","Update","o","true"
"null","<div style=""font-size:60px;"">+</div>","null","html-keyboard-response","99","134967","0.0-3.0-0.48","","fixation","","",""
"769","Set1/168a.jpg","79","image-keyboard-response","100","135737","0.0-3.0-1.48","","","Set_2_Only","o","true"
"null","<div style=""font-size:60px;"">+</div>","null","html-keyboard-response","101","136242","0.0-3.0-0.49","","fixation","","",""
"639","Set1/038a.jpg","79","image-keyboard-response","102","136881","0.0-3.0-1.49","","","Repeat","o","true"
"null","<div style=""font-size:60px;"">+</div>","null","html-keyboard-response","103","137386","0.0-3.0-0.50","","fixation","","",""
"814","Set1/154b.jpg","79","image-keyboard-response","104","138200","0.0-3.0-1.50","","","Update","n","false"
"null","<div style=""font-size:60px;"">+</div>","null","html-keyboard-response","105","138702","0.0-3.0-0.51","","fixation","","",""
"1363","Set1/067a.jpg","78","image-keyboard-response","106","140065","0.0-3.0-1.51","","","Repeat","n","true"
"null","<div style=""font-size:60px;"">+</div>","null","html-keyboard-response","107","140570","0.0-3.0-0.52","","fixation","","",""
"719","Set1/080a.jpg","79","image-keyboard-response","108","141289","0.0-3.0-1.52","","","Repeat","o","true"
"null","<div style=""font-size:60px;"">+</div>","null","html-keyboard-response","109","141793","0.0-3.0-0.53","","fixation","","",""
"775","Set1/154b.jpg","79","image-keyboard-response","110","142569","0.0-3.0-1.53","","","Update","o","true"
"null","<div style=""font-size:60px;"">+</div>","null","html-keyboard-response","111","143074","0.0-3.0-0.54","","fixation","","",""
"950","Set1/087a.jpg","79","image-keyboard-response","112","144025","0.0-3.0-1.54","","","Repeat","n","false"
"null","<div style=""font-size:60px;"">+</div>","null","html-keyboard-response","113","144528","0.0-3.0-0.55","","fixation","","",""
"656","Set1/149b.jpg","79","image-keyboard-response","114","145184","0.0-3.0-1.55","","","Update","n","false"
"null","<div style=""font-size:60px;"">+</div>","null","html-keyboard-response","115","145689","0.0-3.0-0.56","","fixation","","",""
"720","Set1/173a.jpg","78","image-keyboard-response","116","146409","0.0-3.0-1.56","","","Set_2_Only","n","true"
"null","<div style=""font-size:60px;"">+</div>","null","html-keyboard-response","117","146911","0.0-3.0-0.57","","fixation","","",""
"681","Set1/040a.jpg","79","image-keyboard-response","118","147592","0.0-3.0-1.57","","","Repeat","o","true"
"null","<div style=""font-size:60px;"">+</div>","null","html-keyboard-response","119","148098","0.0-3.0-0.58","","fixation","","",""
"558","Set1/058a.jpg","78","image-keyboard-response","120","148657","0.0-3.0-1.58","","","Repeat","o","false"
"null","<div style=""font-size:60px;"">+</div>","null","html-keyboard-response","121","149162","0.0-3.0-0.59","","fixation","","",""
"846","Set1/173a.jpg","79","image-keyboard-response","122","150008","0.0-3.0-1.59","","","Set_2_Only","o","true"
"null","<div style=""font-size:60px;"">+</div>","null","html-keyboard-response","123","150514","0.0-3.0-0.60","","fixation","","",""
"677","Set1/140b.jpg","79","image-keyboard-response","124","151192","0.0-3.0-1.60","","","Update","o","true"
"null","<div style=""font-size:60px;"">+</div>","null","html-keyboard-response","125","151695","0.0-3.0-0.61","","fixation","","",""
"1480","Set1/187a.jpg","78","image-keyboard-response","126","153176","0.0-3.0-1.61","","","Set_2_Only","n","true"
"null","<div style=""font-size:60px;"">+</div>","null","html-keyboard-response","127","153681","0.0-3.0-0.62","","fixation","","",""
"725","Set1/067a.jpg","79","image-keyboard-response","128","154408","0.0-3.0-1.62","","","Repeat","o","true"
"null","<div style=""font-size:60px;"">+</div>","null","html-keyboard-response","129","154913","0.0-3.0-0.63","","fixation","","",""
"1031","Set1/126b.jpg","79","image-keyboard-response","130","155944","0.0-3.0-1.63","","","Update","o","true"
"null","<div style=""font-size:60px;"">+</div>","null","html-keyboard-response","131","156448","0.0-3.0-0.64","","fixation","","",""
"1033","Set1/188a.jpg","78","image-keyboard-response","132","157482","0.0-3.0-1.64","","","Set_2_Only","n","true"
"null","<div style=""font-size:60px;"">+</div>","null","html-keyboard-response","133","157987","0.0-3.0-0.65","","fixation","","",""
"811","Set1/145b.jpg","79","image-keyboard-response","134","158800","0.0-3.0-1.65","","","Update","o","true"
"null","<div style=""font-size:60px;"">+</div>","null","html-keyboard-response","135","159305","0.0-3.0-0.66","","fixation","","",""
"750","Set1/075a.jpg","79","image-keyboard-response","136","160056","0.0-3.0-1.66","","","Repeat","o","true"
"null","<div style=""font-size:60px;"">+</div>","null","html-keyboard-response","137","160560","0.0-3.0-0.67","","fixation","","",""
"912","Set1/059a.jpg","79","image-keyboard-response","138","161473","0.0-3.0-1.67","","","Repeat","n","false"
"null","<div style=""font-size:60px;"">+</div>","null","html-keyboard-response","139","161977","0.0-3.0-0.68","","fixation","","",""
"662","Set1/149b.jpg","79","image-keyboard-response","140","162640","0.0-3.0-1.68","","","Update","o","true"
"null","<div style=""font-size:60px;"">+</div>","null","html-keyboard-response","141","163145","0.0-3.0-0.69","","fixation","","",""
"606","Set1/087a.jpg","79","image-keyboard-response","142","163752","0.0-3.0-1.69","","","Repeat","o","true"
"null","<div style=""font-size:60px;"">+</div>","null","html-keyboard-response","143","164254","0.0-3.0-0.70","","fixation","","",""
"898","Set1/187a.jpg","79","image-keyboard-response","144","165152","0.0-3.0-1.70","","","Set_2_Only","o","true"
"null","<div style=""font-size:60px;"">+</div>","null","html-keyboard-response","145","165657","0.0-3.0-0.71","","fixation","","",""
"800","Set1/059a.jpg","79","image-keyboard-response","146","166458","0.0-3.0-1.71","","","Repeat","o","true"
"null","<div style=""font-size:60px;"">+</div>","null","html-keyboard-response","147","166963","0.0-3.0-0.72","","fixation","","",""
"1396","Set1/157b.jpg","79","image-keyboard-response","148","168360","0.0-3.0-1.72","","","Update","o","true"
"null","<div style=""font-size:60px;"">+</div>","null","html-keyboard-response","149","168861","0.0-3.0-0.73","","fixation","","",""
"1139","Set1/123b.jpg","79","image-keyboard-response","150","170000","0.0-3.0-1.73","","","Update","o","true"
"null","<div style=""font-size:60px;"">+</div>","null","html-keyboard-response","151","170504","0.0-3.0-0.74","","fixation","","",""
"687","Set1/175a.jpg","79","image-keyboard-response","152","171191","0.0-3.0-1.74","","","Set_2_Only","o","true"
"null","<div style=""font-size:60px;"">+</div>","null","html-keyboard-response","153","171692","0.0-3.0-0.75","","fixation","","",""
"587","Set1/188a.jpg","79","image-keyboard-response","154","172280","0.0-3.0-1.75","","","Set_2_Only","o","true"
"null","<div style=""font-size:60px;"">+</div>","null","html-keyboard-response","155","172785","0.0-3.0-0.76","","fixation","","",""
"766","Set1/039a.jpg","79","image-keyboard-response","156","173551","0.0-3.0-1.76","","","Repeat","o","true"
"null","<div style=""font-size:60px;"">+</div>","null","html-keyboard-response","157","174056","0.0-3.0-0.77","","fixation","","",""
"774","Set1/141b.jpg","79","image-keyboard-response","158","174832","0.0-3.0-1.77","","","Update","o","true"
"null","<div style=""font-size:60px;"">+</div>","null","html-keyboard-response","159","175337","0.0-3.0-0.78","","fixation","","",""
"630","Set1/091a.jpg","79","image-keyboard-response","160","175967","0.0-3.0-1.78","","","Repeat","o","true"
"null","<div style=""font-size:60px;"">+</div>","null","html-keyboard-response","161","176473","0.0-3.0-0.79","","fixation","","",""
"774","Set1/138b.jpg","79","image-keyboard-response","162","177248","0.0-3.0-1.79","","","Update","o","true"
"null","<div style=""font-size:60px;"">+</div>","null","html-keyboard-response","163","177749","0.0-3.0-0.80","","fixation","","",""
"803","Set1/055a.jpg","79","image-keyboard-response","164","178552","0.0-3.0-1.80","","","Repeat","n","false"
"null","<div style=""font-size:60px;"">+</div>","null","html-keyboard-response","165","179057","0.0-3.0-0.81","","fixation","","",""
"1038","Set1/128b.jpg","78","image-keyboard-response","166","180095","0.0-3.0-1.81","","","Update","n","true"
"null","<div style=""font-size:60px;"">+</div>","null","html-keyboard-response","167","180601","0.0-3.0-0.82","","fixation","","",""
"862","Set1/046a.jpg","79","image-keyboard-response","168","181463","0.0-3.0-1.82","","","Repeat","n","false"
"null","<div style=""font-size:60px;"">+</div>","null","html-keyboard-response","169","181965","0.0-3.0-0.83","","fixation","","",""
"929","Set1/139b.jpg","79","image-keyboard-response","170","182895","0.0-3.0-1.83","","","Update","n","false"
"null","<div style=""font-size:60px;"">+</div>","null","html-keyboard-response","171","183397","0.0-3.0-0.84","","fixation","","",""
"946","Set1/084a.jpg","79","image-keyboard-response","172","184343","0.0-3.0-1.84","","","Repeat","n","false"
"null","<div style=""font-size:60px;"">+</div>","null","html-keyboard-response","173","184848","0.0-3.0-0.85","","fixation","","",""
"1167","Set1/147b.jpg","79","image-keyboard-response","174","186015","0.0-3.0-1.85","","","Update","n","false"
"null","<div style=""font-size:60px;"">+</div>","null","html-keyboard-response","175","186517","0.0-3.0-0.86","","fixation","","",""
"722","Set1/176a.jpg","78","image-keyboard-response","176","187239","0.0-3.0-1.86","","","Set_2_Only","n","true"
"null","<div style=""font-size:60px;"">+</div>","null","html-keyboard-response","177","187743","0.0-3.0-0.87","","fixation","","",""
"864","Set1/042a.jpg","78","image-keyboard-response","178","188607","0.0-3.0-1.87","","","Repeat","n","true"
"null","<div style=""font-size:60px;"">+</div>","null","html-keyboard-response","179","189110","0.0-3.0-0.88","","fixation","","",""
"712","Set1/114b.jpg","78","image-keyboard-response","180","189823","0.0-3.0-1.88","","","Update","n","true"
"null","<div style=""font-size:60px;"">+</div>","null","html-keyboard-response","181","190328","0.0-3.0-0.89","","fixation","","",""
"798","Set1/064a.jpg","79","image-keyboard-response","182","191127","0.0-3.0-1.89","","","Repeat","n","false"
"null","<div style=""font-size:60px;"">+</div>","null","html-keyboard-response","183","191632","0.0-3.0-0.90","","fixation","","",""
"734","Set1/036a.jpg","79","image-keyboard-response","184","192367","0.0-3.0-1.90","","","Repeat","n","false"
"null","<div style=""font-size:60px;"">+</div>","null","html-keyboard-response","185","192872","0.0-3.0-0.91","","fixation","","",""
"678","Set1/139b.jpg","79","image-keyboard-response","186","193551","0.0-3.0-1.91","","","Update","o","true"
"null","<div style=""font-size:60px;"">+</div>","null","html-keyboard-response","187","194055","0.0-3.0-0.92","","fixation","","",""
"647","Set1/128b.jpg","79","image-keyboard-response","188","194703","0.0-3.0-1.92","","","Update","o","true"
"null","<div style=""font-size:60px;"">+</div>","null","html-keyboard-response","189","195206","0.0-3.0-0.93","","fixation","","",""
"719","Set1/044a.jpg","79","image-keyboard-response","190","195926","0.0-3.0-1.93","","","Repeat","n","false"
"null","<div style=""font-size:60px;"">+</div>","null","html-keyboard-response","191","196432","0.0-3.0-0.94","","fixation","","",""
"839","Set1/162a.jpg","78","image-keyboard-response","192","197271","0.0-3.0-1.94","","","Set_2_Only","n","true"
"null","<div style=""font-size:60px;"">+</div>","null","html-keyboard-response","193","197772","0.0-3.0-0.95","","fixation","","",""
"859","Set1/074a.jpg","79","image-keyboard-response","194","198631","0.0-3.0-1.95","","","Repeat","n","false"
"null","<div style=""font-size:60px;"">+</div>","null","html-keyboard-response","195","199136","0.0-3.0-0.96","","fixation","","",""
"726","Set1/114b.jpg","79","image-keyboard-response","196","199863","0.0-3.0-1.96","","","Update","o","true"
"null","<div style=""font-size:60px;"">+</div>","null","html-keyboard-response","197","200364","0.0-3.0-0.97","","fixation","","",""
"1051","Set1/159b.jpg","78","image-keyboard-response","198","201415","0.0-3.0-1.97","","","Update","n","true"
"null","<div style=""font-size:60px;"">+</div>","null","html-keyboard-response","199","201918","0.0-3.0-0.98","","fixation","","",""
"1184","Set1/143b.jpg","78","image-keyboard-response","200","203103","0.0-3.0-1.98","","","Update","n","true"
"null","<div style=""font-size:60px;"">+</div>","null","html-keyboard-response","201","203605","0.0-3.0-0.99","","fixation","","",""
"1216","Set1/103b.jpg","78","image-keyboard-response","202","204822","0.0-3.0-1.99","","","Update","n","true"
"null","<div style=""font-size:60px;"">+</div>","null","html-keyboard-response","203","205325","0.0-3.0-0.100","","fixation","","",""
"800","Set1/047a.jpg","79","image-keyboard-response","204","206127","0.0-3.0-1.100","","","Repeat","n","false"
"null","<div style=""font-size:60px;"">+</div>","null","html-keyboard-response","205","206632","0.0-3.0-0.101","","fixation","","",""
"822","Set1/064a.jpg","79","image-keyboard-response","206","207454","0.0-3.0-1.101","","","Repeat","o","true"
"null","<div style=""font-size:60px;"">+</div>","null","html-keyboard-response","207","207959","0.0-3.0-0.102","","fixation","","",""
"983","Set1/191a.jpg","78","image-keyboard-response","208","208943","0.0-3.0-1.102","","","Set_2_Only","n","true"
"null","<div style=""font-size:60px;"">+</div>","null","html-keyboard-response","209","209448","0.0-3.0-0.103","","fixation","","",""
"1157","Set1/071a.jpg","79","image-keyboard-response","210","210606","0.0-3.0-1.103","","","Repeat","n","false"
"null","<div style=""font-size:60px;"">+</div>","null","html-keyboard-response","211","211111","0.0-3.0-0.104","","fixation","","",""
"886","Set1/096a.jpg","79","image-keyboard-response","212","211998","0.0-3.0-1.104","","","Repeat","n","false"
"null","<div style=""font-size:60px;"">+</div>","null","html-keyboard-response","213","212502","0.0-3.0-0.105","","fixation","","",""
"1344","Set1/098b.jpg","79","image-keyboard-response","214","213846","0.0-3.0-1.105","","","Update","n","false"
"null","<div style=""font-size:60px;"">+</div>","null","html-keyboard-response","215","214352","0.0-3.0-0.106","","fixation","","",""
"918","Set1/106b.jpg","78","image-keyboard-response","216","215270","0.0-3.0-1.106","","","Update","n","true"
"null","<div style=""font-size:60px;"">+</div>","null","html-keyboard-response","217","215776","0.0-3.0-0.107","","fixation","","",""
"754","Set1/159b.jpg","79","image-keyboard-response","218","216530","0.0-3.0-1.107","","","Update","o","true"
"null","<div style=""font-size:60px;"">+</div>","null","html-keyboard-response","219","217035","0.0-3.0-0.108","","fixation","","",""
"658","Set1/071a.jpg","79","image-keyboard-response","220","217694","0.0-3.0-1.108","","","Repeat","o","true"
"null","<div style=""font-size:60px;"">+</div>","null","html-keyboard-response","221","218198","0.0-3.0-0.109","","fixation","","",""
"719","Set1/047a.jpg","79","image-keyboard-response","222","218918","0.0-3.0-1.109","","","Repeat","o","true"
"null","<div style=""font-size:60px;"">+</div>","null","html-keyboard-response","223","219423","0.0-3.0-0.110","","fixation","","",""
"1014","Set1/144b.jpg","79","image-keyboard-response","224","220438","0.0-3.0-1.110","","","Update","n","false"
"null","<div style=""font-size:60px;"">+</div>","null","html-keyboard-response","225","220943","0.0-3.0-0.111","","fixation","","",""
"973","Set1/069a.jpg","79","image-keyboard-response","226","221918","0.0-3.0-1.111","","","Repeat","n","false"
"null","<div style=""font-size:60px;"">+</div>","null","html-keyboard-response","227","222418","0.0-3.0-0.112","","fixation","","",""
"756","Set1/034a.jpg","79","image-keyboard-response","228","223176","0.0-3.0-1.112","","","Repeat","n","false"
"null","<div style=""font-size:60px;"">+</div>","null","html-keyboard-response","229","223678","0.0-3.0-0.113","","fixation","","",""
"804","Set1/050a.jpg","79","image-keyboard-response","230","224482","0.0-3.0-1.113","","","Repeat","n","false"
"null","<div style=""font-size:60px;"">+</div>","null","html-keyboard-response","231","224987","0.0-3.0-0.114","","fixation","","",""
"1050","Set1/068a.jpg","78","image-keyboard-response","232","226037","0.0-3.0-1.114","","","Repeat","n","true"
"null","<div style=""font-size:60px;"">+</div>","null","html-keyboard-response","233","226538","0.0-3.0-0.115","","fixation","","",""
"1171","Set1/130b.jpg","78","image-keyboard-response","234","227709","0.0-3.0-1.115","","","Update","n","true"
"null","<div style=""font-size:60px;"">+</div>","null","html-keyboard-response","235","228210","0.0-3.0-0.116","","fixation","","",""
"715","Set1/046a.jpg","79","image-keyboard-response","236","228926","0.0-3.0-1.116","","","Repeat","o","true"
"null","<div style=""font-size:60px;"">+</div>","null","html-keyboard-response","237","229431","0.0-3.0-0.117","","fixation","","",""
"1150","Set1/073a.jpg","78","image-keyboard-response","238","230582","0.0-3.0-1.117","","","Repeat","n","true"
"null","<div style=""font-size:60px;"">+</div>","null","html-keyboard-response","239","231087","0.0-3.0-0.118","","fixation","","",""
"1389","Set1/078a.jpg","78","image-keyboard-response","240","232478","0.0-3.0-1.118","","","Repeat","n","true"
"null","<div style=""font-size:60px;"">+</div>","null","html-keyboard-response","241","232979","0.0-3.0-0.119","","fixation","","",""
"754","Set1/147b.jpg","79","image-keyboard-response","242","233734","0.0-3.0-1.119","","","Update","o","true"
"null","<div style=""font-size:60px;"">+</div>","null","html-keyboard-response","243","234236","0.0-3.0-0.120","","fixation","","",""
"1113","Set1/066a.jpg","78","image-keyboard-response","244","235349","0.0-3.0-1.120","","","Repeat","n","true"
"null","<div style=""font-size:60px;"">+</div>","null","html-keyboard-response","245","235852","0.0-3.0-0.121","","fixation","","",""
"984","Set1/106b.jpg","79","image-keyboard-response","246","236838","0.0-3.0-1.121","","","Update","o","true"
"null","<div style=""font-size:60px;"">+</div>","null","html-keyboard-response","247","237343","0.0-3.0-0.122","","fixation","","",""
"918","Set1/112b.jpg","78","image-keyboard-response","248","238261","0.0-3.0-1.122","","","Update","n","true"
"null","<div style=""font-size:60px;"">+</div>","null","html-keyboard-response","249","238767","0.0-3.0-0.123","","fixation","","",""
"830","Set1/185a.jpg","78","image-keyboard-response","250","239598","0.0-3.0-1.123","","","Set_2_Only","n","true"
"null","<div style=""font-size:60px;"">+</div>","null","html-keyboard-response","251","240103","0.0-3.0-0.124","","fixation","","",""
"775","Set1/036a.jpg","79","image-keyboard-response","252","240878","0.0-3.0-1.124","","","Repeat","o","true"
"null","<div style=""font-size:60px;"">+</div>","null","html-keyboard-response","253","241383","0.0-3.0-0.125","","fixation","","",""
"662","Set1/098b.jpg","79","image-keyboard-response","254","242045","0.0-3.0-1.125","","","Update","o","true"
"null","<div style=""font-size:60px;"">+</div>","null","html-keyboard-response","255","242547","0.0-3.0-0.126","","fixation","","",""
"626","Set1/096a.jpg","79","image-keyboard-response","256","243174","0.0-3.0-1.126","","","Repeat","o","true"
"null","<div style=""font-size:60px;"">+</div>","null","html-keyboard-response","257","243675","0.0-3.0-0.127","","fixation","","",""
"802","Set1/185a.jpg","79","image-keyboard-response","258","244477","0.0-3.0-1.127","","","Set_2_Only","o","true"
"null","<div style=""font-size:60px;"">+</div>","null","html-keyboard-response","259","244982","0.0-3.0-0.128","","fixation","","",""
"734","Set1/066a.jpg","79","image-keyboard-response","260","245717","0.0-3.0-1.128","","","Repeat","o","true"
"null","<div style=""font-size:60px;"">+</div>","null","html-keyboard-response","261","246218","0.0-3.0-0.129","","fixation","","",""
"610","Set1/144b.jpg","79","image-keyboard-response","262","246829","0.0-3.0-1.129","","","Update","o","true"
"null","<div style=""font-size:60px;"">+</div>","null","html-keyboard-response","263","247331","0.0-3.0-0.130","","fixation","","",""
"1354","Set1/112b.jpg","79","image-keyboard-response","264","248685","0.0-3.0-1.130","","","Update","o","true"
"null","<div style=""font-size:60px;"">+</div>","null","html-keyboard-response","265","249194","0.0-3.0-0.131","","fixation","","",""
"754","Set1/162a.jpg","78","image-keyboard-response","266","249950","0.0-3.0-1.131","","","Set_2_Only","o","false"
"null","<div style=""font-size:60px;"">+</div>","null","html-keyboard-response","267","250454","0.0-3.0-0.132","","fixation","","",""
"822","Set1/176a.jpg","79","image-keyboard-response","268","251278","0.0-3.0-1.132","","","Set_2_Only","o","true"
"null","<div style=""font-size:60px;"">+</div>","null","html-keyboard-response","269","251781","0.0-3.0-0.133","","fixation","","",""
"895","Set1/050a.jpg","79","image-keyboard-response","270","252677","0.0-3.0-1.133","","","Repeat","o","true"
"null","<div style=""font-size:60px;"">+</div>","null","html-keyboard-response","271","253179","0.0-3.0-0.134","","fixation","","",""
"658","Set1/078a.jpg","79","image-keyboard-response","272","253837","0.0-3.0-1.134","","","Repeat","o","true"
"null","<div style=""font-size:60px;"">+</div>","null","html-keyboard-response","273","254340","0.0-3.0-0.135","","fixation","","",""
"2168","Set1/150b.jpg","78","image-keyboard-response","274","256509","0.0-3.0-1.135","","","Update","n","true"
"null","<div style=""font-size:60px;"">+</div>","null","html-keyboard-response","275","257014","0.0-3.0-0.136","","fixation","","",""
"815","Set1/043a.jpg","78","image-keyboard-response","276","257829","0.0-3.0-1.136","","","Repeat","n","true"
"null","<div style=""font-size:60px;"">+</div>","null","html-keyboard-response","277","258334","0.0-3.0-0.137","","fixation","","",""
"893","Set1/100b.jpg","78","image-keyboard-response","278","259228","0.0-3.0-1.137","","","Update","n","true"
"null","<div style=""font-size:60px;"">+</div>","null","html-keyboard-response","279","259733","0.0-3.0-0.138","","fixation","","",""
"862","Set1/042a.jpg","79","image-keyboard-response","280","260597","0.0-3.0-1.138","","","Repeat","o","true"
"null","<div style=""font-size:60px;"">+</div>","null","html-keyboard-response","281","261102","0.0-3.0-0.139","","fixation","","",""
"991","Set1/131b.jpg","78","image-keyboard-response","282","262093","0.0-3.0-1.139","","","Update","n","true"
"null","<div style=""font-size:60px;"">+</div>","null","html-keyboard-response","283","262594","0.0-3.0-0.140","","fixation","","",""
"665","Set1/073a.jpg","79","image-keyboard-response","284","263261","0.0-3.0-1.140","","","Repeat","o","true"
"null","<div style=""font-size:60px;"">+</div>","null","html-keyboard-response","285","263761","0.0-3.0-0.141","","fixation","","",""
"954","Set1/074a.jpg","79","image-keyboard-response","286","264717","0.0-3.0-1.141","","","Repeat","o","true"
"null","<div style=""font-size:60px;"">+</div>","null","html-keyboard-response","287","265222","0.0-3.0-0.142","","fixation","","",""
"622","Set1/034a.jpg","79","image-keyboard-response","288","265845","0.0-3.0-1.142","","","Repeat","o","true"
"null","<div style=""font-size:60px;"">+</div>","null","html-keyboard-response","289","266350","0.0-3.0-0.143","","fixation","","",""
"822","Set1/068a.jpg","79","image-keyboard-response","290","267173","0.0-3.0-1.143","","","Repeat","o","true"
"null","<div style=""font-size:60px;"">+</div>","null","html-keyboard-response","291","267678","0.0-3.0-0.144","","fixation","","",""
"765","Set1/191a.jpg","79","image-keyboard-response","292","268445","0.0-3.0-1.144","","","Set_2_Only","o","true"
"null","<div style=""font-size:60px;"">+</div>","null","html-keyboard-response","293","268947","0.0-3.0-0.145","","fixation","","",""
"784","Set1/131b.jpg","79","image-keyboard-response","294","269733","0.0-3.0-1.145","","","Update","o","true"
"null","<div style=""font-size:60px;"">+</div>","null","html-keyboard-response","295","270234","0.0-3.0-0.146","","fixation","","",""
"761","Set1/043a.jpg","79","image-keyboard-response","296","270997","0.0-3.0-1.146","","","Repeat","o","true"
"null","<div style=""font-size:60px;"">+</div>","null","html-keyboard-response","297","271499","0.0-3.0-0.147","","fixation","","",""
"814","Set1/100b.jpg","79","image-keyboard-response","298","272314","0.0-3.0-1.147","","","Update","o","true"
"null","<div style=""font-size:60px;"">+</div>","null","html-keyboard-response","299","272815","0.0-3.0-0.148","","fixation","","",""
"1021","Set1/055a.jpg","79","image-keyboard-response","300","273836","0.0-3.0-1.148","","","Repeat","o","true"
"null","<div style=""font-size:60px;"">+</div>","null","html-keyboard-response","301","274337","0.0-3.0-0.149","","fixation","","",""
"843","Set1/041a.jpg","79","image-keyboard-response","302","275180","0.0-3.0-1.149","","","Repeat","n","false"
"null","<div style=""font-size:60px;"">+</div>","null","html-keyboard-response","303","275685","0.0-3.0-0.150","","fixation","","",""
"694","Set1/069a.jpg","79","image-keyboard-response","304","276380","0.0-3.0-1.150","","","Repeat","o","true"
"null","<div style=""font-size:60px;"">+</div>","null","html-keyboard-response","305","276885","0.0-3.0-0.151","","fixation","","",""
"662","Set1/061a.jpg","79","image-keyboard-response","306","277548","0.0-3.0-1.151","","","Repeat","n","false"
"null","<div style=""font-size:60px;"">+</div>","null","html-keyboard-response","307","278052","0.0-3.0-0.152","","fixation","","",""
"800","Set1/103b.jpg","79","image-keyboard-response","308","278852","0.0-3.0-1.152","","","Update","o","true"
"null","<div style=""font-size:60px;"">+</div>","null","html-keyboard-response","309","279354","0.0-3.0-0.153","","fixation","","",""
"521","Set1/044a.jpg","79","image-keyboard-response","310","279876","0.0-3.0-1.153","","","Repeat","o","true"
"null","<div style=""font-size:60px;"">+</div>","null","html-keyboard-response","311","280378","0.0-3.0-0.154","","fixation","","",""
"585","Set1/150b.jpg","79","image-keyboard-response","312","280964","0.0-3.0-1.154","","","Update","o","true"
"null","<div style=""font-size:60px;"">+</div>","null","html-keyboard-response","313","281470","0.0-3.0-0.155","","fixation","","",""
"509","Set1/084a.jpg","79","image-keyboard-response","314","281980","0.0-3.0-1.155","","","Repeat","o","true"
"null","<div style=""font-size:60px;"">+</div>","null","html-keyboard-response","315","282481","0.0-3.0-0.156","","fixation","","",""
"571","Set1/130b.jpg","79","image-keyboard-response","316","283052","0.0-3.0-1.156","","","Update","o","true"
"null","<div style=""font-size:60px;"">+</div>","null","html-keyboard-response","317","283558","0.0-3.0-0.157","","fixation","","",""
"974","Set1/143b.jpg","79","image-keyboard-response","318","284532","0.0-3.0-1.157","","","Update","o","true"
"null","<div style=""font-size:60px;"">+</div>","null","html-keyboard-response","319","285037","0.0-3.0-0.158","","fixation","","",""
"527","Set1/061a.jpg","79","image-keyboard-response","320","285564","0.0-3.0-1.158","","","Repeat","o","true"
"null","<div style=""font-size:60px;"">+</div>","null","html-keyboard-response","321","286069","0.0-3.0-0.159","","fixation","","",""
"1318","Set1/041a.jpg","79","image-keyboard-response","322","287388","0.0-3.0-1.159","","","Repeat","o","true"
"null","<div style=""font-size:60px;"">+</div>","null","html-keyboard-response","323","287893","0.0-3.0-0.160","","fixation","","",""
"1471","Set1/113b.jpg","78","image-keyboard-response","324","289364","0.0-3.0-1.160","","","Update","n","true"
"null","<div style=""font-size:60px;"">+</div>","null","html-keyboard-response","325","289867","0.0-3.0-0.161","","fixation","","",""
"929","Set1/105b.jpg","79","image-keyboard-response","326","290796","0.0-3.0-1.161","","","Update","n","false"
"null","<div style=""font-size:60px;"">+</div>","null","html-keyboard-response","327","291300","0.0-3.0-0.162","","fixation","","",""
"815","Set1/056a.jpg","79","image-keyboard-response","328","292116","0.0-3.0-1.162","","","Repeat","n","false"
"null","<div style=""font-size:60px;"">+</div>","null","html-keyboard-response","329","292620","0.0-3.0-0.163","","fixation","","",""
"1319","Set1/070a.jpg","78","image-keyboard-response","330","293940","0.0-3.0-1.163","","","Repeat","n","true"
"null","<div style=""font-size:60px;"">+</div>","null","html-keyboard-response","331","294441","0.0-3.0-0.164","","fixation","","",""
"1202","Set1/089a.jpg","78","image-keyboard-response","332","295644","0.0-3.0-1.164","","","Repeat","n","true"
"null","<div style=""font-size:60px;"">+</div>","null","html-keyboard-response","333","296149","0.0-3.0-0.165","","fixation","","",""
"806","Set1/165a.jpg","78","image-keyboard-response","334","296956","0.0-3.0-1.165","","","Set_2_Only","n","true"
"null","<div style=""font-size:60px;"">+</div>","null","html-keyboard-response","335","297458","0.0-3.0-0.166","","fixation","","",""
"776","Set1/065a.jpg","78","image-keyboard-response","336","298235","0.0-3.0-1.166","","","Repeat","n","true"
"null","<div style=""font-size:60px;"">+</div>","null","html-keyboard-response","337","298736","0.0-3.0-0.167","","fixation","","",""
"818","Set1/104b.jpg","78","image-keyboard-response","338","299555","0.0-3.0-1.167","","","Update","n","true"
"null","<div style=""font-size:60px;"">+</div>","null","html-keyboard-response","339","300056","0.0-3.0-0.168","","fixation","","",""
"866","Set1/065a.jpg","79","image-keyboard-response","340","300923","0.0-3.0-1.168","","","Repeat","o","true"
"null","<div style=""font-size:60px;"">+</div>","null","html-keyboard-response","341","301428","0.0-3.0-0.169","","fixation","","",""
"1079","Set1/082a.jpg","78","image-keyboard-response","342","302507","0.0-3.0-1.169","","","Repeat","n","true"
"null","<div style=""font-size:60px;"">+</div>","null","html-keyboard-response","343","303008","0.0-3.0-0.170","","fixation","","",""
"819","Set1/134b.jpg","78","image-keyboard-response","344","303827","0.0-3.0-1.170","","","Update","n","true"
"null","<div style=""font-size:60px;"">+</div>","null","html-keyboard-response","345","304330","0.0-3.0-0.171","","fixation","","",""
"777","Set1/158b.jpg","78","image-keyboard-response","346","305108","0.0-3.0-1.171","","","Update","n","true"
"null","<div style=""font-size:60px;"">+</div>","null","html-keyboard-response","347","305613","0.0-3.0-0.172","","fixation","","",""
"901","Set1/057a.jpg","78","image-keyboard-response","348","306516","0.0-3.0-1.172","","","Repeat","n","true"
"null","<div style=""font-size:60px;"">+</div>","null","html-keyboard-response","349","307021","0.0-3.0-0.173","","fixation","","",""
"589","Set1/105b.jpg","79","image-keyboard-response","350","307611","0.0-3.0-1.173","","","Update","o","true"
"null","<div style=""font-size:60px;"">+</div>","null","html-keyboard-response","351","308117","0.0-3.0-0.174","","fixation","","",""
"1006","Set1/161a.jpg","78","image-keyboard-response","352","309123","0.0-3.0-1.174","","","Set_2_Only","n","true"
"null","<div style=""font-size:60px;"">+</div>","null","html-keyboard-response","353","309626","0.0-3.0-0.175","","fixation","","",""
"1152","Set1/101b.jpg","78","image-keyboard-response","354","310779","0.0-3.0-1.175","","","Update","n","true"
"null","<div style=""font-size:60px;"">+</div>","null","html-keyboard-response","355","311281","0.0-3.0-0.176","","fixation","","",""
"688","Set1/089a.jpg","79","image-keyboard-response","356","311971","0.0-3.0-1.176","","","Repeat","o","true"
"null","<div style=""font-size:60px;"">+</div>","null","html-keyboard-response","357","312473","0.0-3.0-0.177","","fixation","","",""
"712","Set1/101b.jpg","79","image-keyboard-response","358","313186","0.0-3.0-1.177","","","Update","o","true"
"null","<div style=""font-size:60px;"">+</div>","null","html-keyboard-response","359","313692","0.0-3.0-0.178","","fixation","","",""
"542","Set1/134b.jpg","79","image-keyboard-response","360","314235","0.0-3.0-1.178","","","Update","o","true"
"null","<div style=""font-size:60px;"">+</div>","null","html-keyboard-response","361","314740","0.0-3.0-0.179","","fixation","","",""
"703","Set1/161a.jpg","79","image-keyboard-response","362","315443","0.0-3.0-1.179","","","Set_2_Only","o","true"
"null","<div style=""font-size:60px;"">+</div>","null","html-keyboard-response","363","315949","0.0-3.0-0.180","","fixation","","",""
"798","Set1/116b.jpg","78","image-keyboard-response","364","316747","0.0-3.0-1.180","","","Update","n","true"
"null","<div style=""font-size:60px;"">+</div>","null","html-keyboard-response","365","317252","0.0-3.0-0.181","","fixation","","",""
"757","Set1/152b.jpg","78","image-keyboard-response","366","318011","0.0-3.0-1.181","","","Update","n","true"
"null","<div style=""font-size:60px;"">+</div>","null","html-keyboard-response","367","318512","0.0-3.0-0.182","","fixation","","",""
"1083","Set1/045a.jpg","79","image-keyboard-response","368","319595","0.0-3.0-1.182","","","Repeat","n","false"
"null","<div style=""font-size:60px;"">+</div>","null","html-keyboard-response","369","320100","0.0-3.0-0.183","","fixation","","",""
"702","Set1/183a.jpg","78","image-keyboard-response","370","320803","0.0-3.0-1.183","","","Set_2_Only","n","true"
"null","<div style=""font-size:60px;"">+</div>","null","html-keyboard-response","371","321305","0.0-3.0-0.184","","fixation","","",""
"1049","Set1/053a.jpg","78","image-keyboard-response","372","322355","0.0-3.0-1.184","","","Repeat","n","true"
"null","<div style=""font-size:60px;"">+</div>","null","html-keyboard-response","373","322857","0.0-3.0-0.185","","fixation","","",""
"713","Set1/182a.jpg","78","image-keyboard-response","374","323571","0.0-3.0-1.185","","","Set_2_Only","n","true"
"null","<div style=""font-size:60px;"">+</div>","null","html-keyboard-response","375","324076","0.0-3.0-0.186","","fixation","","",""
"798","Set1/124b.jpg","78","image-keyboard-response","376","324875","0.0-3.0-1.186","","","Update","n","true"
"null","<div style=""font-size:60px;"">+</div>","null","html-keyboard-response","377","325380","0.0-3.0-0.187","","fixation","","",""
"1151","Set1/155b.jpg","78","image-keyboard-response","378","326531","0.0-3.0-1.187","","","Update","n","true"
"null","<div style=""font-size:60px;"">+</div>","null","html-keyboard-response","379","327032","0.0-3.0-0.188","","fixation","","",""
"906","Set1/104b.jpg","79","image-keyboard-response","380","327938","0.0-3.0-1.188","","","Update","o","true"
"null","<div style=""font-size:60px;"">+</div>","null","html-keyboard-response","381","328444","0.0-3.0-0.189","","fixation","","",""
"798","Set1/052a.jpg","78","image-keyboard-response","382","329242","0.0-3.0-1.189","","","Repeat","n","true"
"null","<div style=""font-size:60px;"">+</div>","null","html-keyboard-response","383","329746","0.0-3.0-0.190","","fixation","","",""
"721","Set1/158b.jpg","79","image-keyboard-response","384","330467","0.0-3.0-1.190","","","Update","o","true"
"null","<div style=""font-size:60px;"">+</div>","null","html-keyboard-response","385","330972","0.0-3.0-0.191","","fixation","","",""
"878","Set1/184a.jpg","78","image-keyboard-response","386","331850","0.0-3.0-1.191","","","Set_2_Only","n","true"
"null","<div style=""font-size:60px;"">+</div>","null","html-keyboard-response","387","332355","0.0-3.0-0.192","","fixation","","",""
"598","Set1/052a.jpg","79","image-keyboard-response","388","332954","0.0-3.0-1.192","","","Repeat","o","true"
"null","<div style=""font-size:60px;"">+</div>","null","html-keyboard-response","389","333460","0.0-3.0-0.193","","fixation","","",""
"838","Set1/192a.jpg","78","image-keyboard-response","390","334298","0.0-3.0-1.193","","","Set_2_Only","n","true"
"null","<div style=""font-size:60px;"">+</div>","null","html-keyboard-response","391","334803","0.0-3.0-0.194","","fixation","","",""
"870","Set1/155b.jpg","79","image-keyboard-response","392","335674","0.0-3.0-1.194","","","Update","o","true"
"null","<div style=""font-size:60px;"">+</div>","null","html-keyboard-response","393","336175","0.0-3.0-0.195","","fixation","","",""
"1194","Set1/070a.jpg","79","image-keyboard-response","394","337371","0.0-3.0-1.195","","","Repeat","o","true"
"null","<div style=""font-size:60px;"">+</div>","null","html-keyboard-response","395","337874","0.0-3.0-0.196","","fixation","","",""
"880","Set1/048a.jpg","78","image-keyboard-response","396","338755","0.0-3.0-1.196","","","Repeat","n","true"
"null","<div style=""font-size:60px;"">+</div>","null","html-keyboard-response","397","339255","0.0-3.0-0.197","","fixation","","",""
"1690","Set1/122b.jpg","78","image-keyboard-response","398","340946","0.0-3.0-1.197","","","Update","n","true"
"null","<div style=""font-size:60px;"">+</div>","null","html-keyboard-response","399","341448","0.0-3.0-0.198","","fixation","","",""
"728","Set1/156b.jpg","78","image-keyboard-response","400","342177","0.0-3.0-1.198","","","Update","n","true"
"null","<div style=""font-size:60px;"">+</div>","null","html-keyboard-response","401","342683","0.0-3.0-0.199","","fixation","","",""
"791","Set1/097b.jpg","78","image-keyboard-response","402","343474","0.0-3.0-1.199","","","Update","n","true"
"null","<div style=""font-size:60px;"">+</div>","null","html-keyboard-response","403","343977","0.0-3.0-0.200","","fixation","","",""
"880","Set1/118b.jpg","78","image-keyboard-response","404","344858","0.0-3.0-1.200","","","Update","n","true"
"null","<div style=""font-size:60px;"">+</div>","null","html-keyboard-response","405","345359","0.0-3.0-0.201","","fixation","","",""
"770","Set1/183a.jpg","79","image-keyboard-response","406","346130","0.0-3.0-1.201","","","Set_2_Only","o","true"
"null","<div style=""font-size:60px;"">+</div>","null","html-keyboard-response","407","346635","0.0-3.0-0.202","","fixation","","",""
"855","Set1/107b.jpg","78","image-keyboard-response","408","347490","0.0-3.0-1.202","","","Update","n","true"
"null","<div style=""font-size:60px;"">+</div>","null","html-keyboard-response","409","347991","0.0-3.0-0.203","","fixation","","",""
"882","Set1/048a.jpg","79","image-keyboard-response","410","348874","0.0-3.0-1.203","","","Repeat","o","true"
"null","<div style=""font-size:60px;"">+</div>","null","html-keyboard-response","411","349375","0.0-3.0-0.204","","fixation","","",""
"689","Set1/116b.jpg","79","image-keyboard-response","412","350065","0.0-3.0-1.204","","","Update","o","true"
"null","<div style=""font-size:60px;"">+</div>","null","html-keyboard-response","413","350567","0.0-3.0-0.205","","fixation","","",""
"898","Set1/174a.jpg","78","image-keyboard-response","414","351466","0.0-3.0-1.205","","","Set_2_Only","n","true"
"null","<div style=""font-size:60px;"">+</div>","null","html-keyboard-response","415","351970","0.0-3.0-0.206","","fixation","","",""
"1423","Set1/190a.jpg","78","image-keyboard-response","416","353393","0.0-3.0-1.206","","","Set_2_Only","n","true"
"null","<div style=""font-size:60px;"">+</div>","null","html-keyboard-response","417","353898","0.0-3.0-0.207","","fixation","","",""
"687","Set1/056a.jpg","79","image-keyboard-response","418","354585","0.0-3.0-1.207","","","Repeat","o","true"
"null","<div style=""font-size:60px;"">+</div>","null","html-keyboard-response","419","355091","0.0-3.0-0.208","","fixation","","",""
"654","Set1/085a.jpg","78","image-keyboard-response","420","355745","0.0-3.0-1.208","","","Repeat","n","true"
"null","<div style=""font-size:60px;"">+</div>","null","html-keyboard-response","421","356248","0.0-3.0-0.209","","fixation","","",""
"792","Set1/182a.jpg","79","image-keyboard-response","422","357042","0.0-3.0-1.209","","","Set_2_Only","o","true"
"null","<div style=""font-size:60px;"">+</div>","null","html-keyboard-response","423","357546","0.0-3.0-0.210","","fixation","","",""
"1535","Set1/163a.jpg","78","image-keyboard-response","424","359082","0.0-3.0-1.210","","","Set_2_Only","n","true"
"null","<div style=""font-size:60px;"">+</div>","null","html-keyboard-response","425","359584","0.0-3.0-0.211","","fixation","","",""
"1072","Set1/189a.jpg","78","image-keyboard-response","426","360657","0.0-3.0-1.211","","","Set_2_Only","n","true"
"null","<div style=""font-size:60px;"">+</div>","null","html-keyboard-response","427","361162","0.0-3.0-0.212","","fixation","","",""
"630","Set1/097b.jpg","79","image-keyboard-response","428","361793","0.0-3.0-1.212","","","Update","o","true"
"null","<div style=""font-size:60px;"">+</div>","null","html-keyboard-response","429","362294","0.0-3.0-0.213","","fixation","","",""
"722","Set1/113b.jpg","79","image-keyboard-response","430","363017","0.0-3.0-1.213","","","Update","o","true"
"null","<div style=""font-size:60px;"">+</div>","null","html-keyboard-response","431","363520","0.0-3.0-0.214","","fixation","","",""
"776","Set1/174a.jpg","79","image-keyboard-response","432","364297","0.0-3.0-1.214","","","Set_2_Only","o","true"
"null","<div style=""font-size:60px;"">+</div>","null","html-keyboard-response","433","364802","0.0-3.0-0.215","","fixation","","",""
"790","Set1/115b.jpg","78","image-keyboard-response","434","365593","0.0-3.0-1.215","","","Update","n","true"
"null","<div style=""font-size:60px;"">+</div>","null","html-keyboard-response","435","366097","0.0-3.0-0.216","","fixation","","",""
"1279","Set1/124b.jpg","79","image-keyboard-response","436","367377","0.0-3.0-1.216","","","Update","o","true"
"null","<div style=""font-size:60px;"">+</div>","null","html-keyboard-response","437","367881","0.0-3.0-0.217","","fixation","","",""
"855","Set1/186a.jpg","78","image-keyboard-response","438","368737","0.0-3.0-1.217","","","Set_2_Only","n","true"
"null","<div style=""font-size:60px;"">+</div>","null","html-keyboard-response","439","369242","0.0-3.0-0.218","","fixation","","",""
"870","Set1/169a.jpg","78","image-keyboard-response","440","370114","0.0-3.0-1.218","","","Set_2_Only","n","true"
"null","<div style=""font-size:60px;"">+</div>","null","html-keyboard-response","441","370619","0.0-3.0-0.219","","fixation","","",""
"606","Set1/192a.jpg","79","image-keyboard-response","442","371225","0.0-3.0-1.219","","","Set_2_Only","o","true"
"null","<div style=""font-size:60px;"">+</div>","null","html-keyboard-response","443","371730","0.0-3.0-0.220","","fixation","","",""
"615","Set1/163a.jpg","79","image-keyboard-response","444","372345","0.0-3.0-1.220","","","Set_2_Only","o","true"
"null","<div style=""font-size:60px;"">+</div>","null","html-keyboard-response","445","372849","0.0-3.0-0.221","","fixation","","",""
"600","Set1/118b.jpg","79","image-keyboard-response","446","373449","0.0-3.0-1.221","","","Update","o","true"
"null","<div style=""font-size:60px;"">+</div>","null","html-keyboard-response","447","373951","0.0-3.0-0.222","","fixation","","",""
"809","Set1/107b.jpg","79","image-keyboard-response","448","374761","0.0-3.0-1.222","","","Update","o","true"
"null","<div style=""font-size:60px;"">+</div>","null","html-keyboard-response","449","375264","0.0-3.0-0.223","","fixation","","",""
"520","Set1/062a.jpg","79","image-keyboard-response","450","375785","0.0-3.0-1.223","","","Repeat","n","false"
"null","<div style=""font-size:60px;"">+</div>","null","html-keyboard-response","451","376286","0.0-3.0-0.224","","fixation","","",""
"1233","Set1/156b.jpg","79","image-keyboard-response","452","377520","0.0-3.0-1.224","","","Update","o","true"
"null","<div style=""font-size:60px;"">+</div>","null","html-keyboard-response","453","378025","0.0-3.0-0.225","","fixation","","",""
"847","Set1/186a.jpg","79","image-keyboard-response","454","378873","0.0-3.0-1.225","","","Set_2_Only","o","true"
"null","<div style=""font-size:60px;"">+</div>","null","html-keyboard-response","455","379388","0.0-3.0-0.226","","fixation","","",""
"492","Set1/045a.jpg","79","image-keyboard-response","456","379881","0.0-3.0-1.226","","","Repeat","o","true"
"null","<div style=""font-size:60px;"">+</div>","null","html-keyboard-response","457","380386","0.0-3.0-0.227","","fixation","","",""
"622","Set1/057a.jpg","79","image-keyboard-response","458","381009","0.0-3.0-1.227","","","Repeat","o","true"
"null","<div style=""font-size:60px;"">+</div>","null","html-keyboard-response","459","381514","0.0-3.0-0.228","","fixation","","",""
"662","Set1/184a.jpg","79","image-keyboard-response","460","382177","0.0-3.0-1.228","","","Set_2_Only","o","true"
"null","<div style=""font-size:60px;"">+</div>","null","html-keyboard-response","461","382677","0.0-3.0-0.229","","fixation","","",""
"634","Set1/165a.jpg","79","image-keyboard-response","462","383312","0.0-3.0-1.229","","","Set_2_Only","o","true"
"null","<div style=""font-size:60px;"">+</div>","null","html-keyboard-response","463","383815","0.0-3.0-0.230","","fixation","","",""
"617","Set1/062a.jpg","79","image-keyboard-response","464","384433","0.0-3.0-1.230","","","Repeat","o","true"
"null","<div style=""font-size:60px;"">+</div>","null","html-keyboard-response","465","384935","0.0-3.0-0.231","","fixation","","",""
"569","Set1/152b.jpg","79","image-keyboard-response","466","385504","0.0-3.0-1.231","","","Update","o","true"
"null","<div style=""font-size:60px;"">+</div>","null","html-keyboard-response","467","386009","0.0-3.0-0.232","","fixation","","",""
"622","Set1/053a.jpg","79","image-keyboard-response","468","386633","0.0-3.0-1.232","","","Repeat","o","true"
"null","<div style=""font-size:60px;"">+</div>","null","html-keyboard-response","469","387137","0.0-3.0-0.233","","fixation","","",""
"551","Set1/190a.jpg","79","image-keyboard-response","470","387689","0.0-3.0-1.233","","","Set_2_Only","o","true"
"null","<div style=""font-size:60px;"">+</div>","null","html-keyboard-response","471","388194","0.0-3.0-0.234","","fixation","","",""
"718","Set1/082a.jpg","79","image-keyboard-response","472","388913","0.0-3.0-1.234","","","Repeat","o","true"
"null","<div style=""font-size:60px;"">+</div>","null","html-keyboard-response","473","389416","0.0-3.0-0.235","","fixation","","",""
"712","Set1/085a.jpg","79","image-keyboard-response","474","390129","0.0-3.0-1.235","","","Repeat","o","true"
"null","<div style=""font-size:60px;"">+</div>","null","html-keyboard-response","475","390630","0.0-3.0-0.236","","fixation","","",""
"530","Set1/169a.jpg","79","image-keyboard-response","476","391161","0.0-3.0-1.236","","","Set_2_Only","o","true"
"null","<div style=""font-size:60px;"">+</div>","null","html-keyboard-response","477","391666","0.0-3.0-0.237","","fixation","","",""
"863","Set1/122b.jpg","79","image-keyboard-response","478","392529","0.0-3.0-1.237","","","Update","o","true"
"null","<div style=""font-size:60px;"">+</div>","null","html-keyboard-response","479","393029","0.0-3.0-0.238","","fixation","","",""
"650","Set1/189a.jpg","79","image-keyboard-response","480","393680","0.0-3.0-1.238","","","Set_2_Only","o","true"
"null","<div style=""font-size:60px;"">+</div>","null","html-keyboard-response","481","394181","0.0-3.0-0.239","","fixation","","",""
"538","Set1/115b.jpg","79","image-keyboard-response","482","394720","0.0-3.0-1.239","","","Update","o","true"
"null","<div style=""font-size:60px;"">+</div>","null","html-keyboard-response","483","395225","0.0-3.0-0.240","","fixation","","",""
"1054","Set1/081a.jpg","79","image-keyboard-response","484","396280","0.0-3.0-1.240","","","Repeat","n","false"
"null","<div style=""font-size:60px;"">+</div>","null","html-keyboard-response","485","396786","0.0-3.0-0.241","","fixation","","",""
"790","Set1/166a.jpg","78","image-keyboard-response","486","397576","0.0-3.0-1.241","","","Set_2_Only","n","true"
"null","<div style=""font-size:60px;"">+</div>","null","html-keyboard-response","487","398081","0.0-3.0-0.242","","fixation","","",""
"862","Set1/111b.jpg","78","image-keyboard-response","488","398944","0.0-3.0-1.242","","","Update","n","true"
"null","<div style=""font-size:60px;"">+</div>","null","html-keyboard-response","489","399448","0.0-3.0-0.243","","fixation","","",""
"751","Set1/063a.jpg","79","image-keyboard-response","490","400200","0.0-3.0-1.243","","","Repeat","n","false"
"null","<div style=""font-size:60px;"">+</div>","null","html-keyboard-response","491","400705","0.0-3.0-0.244","","fixation","","",""
"1158","Set1/127b.jpg","78","image-keyboard-response","492","401865","0.0-3.0-1.244","","","Update","n","true"
"null","<div style=""font-size:60px;"">+</div>","null","html-keyboard-response","493","402370","0.0-3.0-0.245","","fixation","","",""
"902","Set1/077a.jpg","79","image-keyboard-response","494","403272","0.0-3.0-1.245","","","Repeat","n","false"
"null","<div style=""font-size:60px;"">+</div>","null","html-keyboard-response","495","403777","0.0-3.0-0.246","","fixation","","",""
"790","Set1/117b.jpg","78","image-keyboard-response","496","404568","0.0-3.0-1.246","","","Update","n","true"
"null","<div style=""font-size:60px;"">+</div>","null","html-keyboard-response","497","405069","0.0-3.0-0.247","","fixation","","",""
"962","Set1/110b.jpg","79","image-keyboard-response","498","406032","0.0-3.0-1.247","","","Update","n","false"
"null","<div style=""font-size:60px;"">+</div>","null","html-keyboard-response","499","406534","0.0-3.0-0.248","","fixation","","",""
"746","Set1/137b.jpg","79","image-keyboard-response","500","407280","0.0-3.0-1.248","","","Update","n","false"
"null","<div style=""font-size:60px;"">+</div>","null","html-keyboard-response","501","407784","0.0-3.0-0.249","","fixation","","",""
"872","Set1/146b.jpg","79","image-keyboard-response","502","408656","0.0-3.0-1.249","","","Update","n","false"
"null","<div style=""font-size:60px;"">+</div>","null","html-keyboard-response","503","409158","0.0-3.0-0.250","","fixation","","",""
"729","Set1/164a.jpg","78","image-keyboard-response","504","409888","0.0-3.0-1.250","","","Set_2_Only","n","true"
"null","<div style=""font-size:60px;"">+</div>","null","html-keyboard-response","505","410388","0.0-3.0-0.251","","fixation","","",""
"890","Set1/132b.jpg","79","image-keyboard-response","506","411280","0.0-3.0-1.251","","","Update","n","false"
"null","<div style=""font-size:60px;"">+</div>","null","html-keyboard-response","507","411783","0.0-3.0-0.252","","fixation","","",""
"1184","Set1/136b.jpg","78","image-keyboard-response","508","412967","0.0-3.0-1.252","","","Update","n","true"
"null","<div style=""font-size:60px;"">+</div>","null","html-keyboard-response","509","413473","0.0-3.0-0.253","","fixation","","",""
"1046","Set1/072a.jpg","79","image-keyboard-response","510","414519","0.0-3.0-1.253","","","Repeat","n","false"
"null","<div style=""font-size:60px;"">+</div>","null","html-keyboard-response","511","415025","0.0-3.0-0.254","","fixation","","",""
"1271","Set1/049a.jpg","79","image-keyboard-response","512","416296","0.0-3.0-1.254","","","Repeat","n","false"
"null","<div style=""font-size:60px;"">+</div>","null","html-keyboard-response","513","416801","0.0-3.0-0.255","","fixation","","",""
"766","Set1/133b.jpg","78","image-keyboard-response","514","417568","0.0-3.0-1.255","","","Update","n","true"
"null","<div style=""font-size:60px;"">+</div>","null","html-keyboard-response","515","418073","0.0-3.0-0.256","","fixation","","",""
"789","Set1/109b.jpg","78","image-keyboard-response","516","418863","0.0-3.0-1.256","","","Update","n","true"
"null","<div style=""font-size:60px;"">+</div>","null","html-keyboard-response","517","419369","0.0-3.0-0.257","","fixation","","",""
"654","Set1/121b.jpg","78","image-keyboard-response","518","420024","0.0-3.0-1.257","","","Update","n","true"
"null","<div style=""font-size:60px;"">+</div>","null","html-keyboard-response","519","420528","0.0-3.0-0.258","","fixation","","",""
"703","Set1/111b.jpg","79","image-keyboard-response","520","421232","0.0-3.0-1.258","","","Update","o","true"
"null","<div style=""font-size:60px;"">+</div>","null","html-keyboard-response","521","421737","0.0-3.0-0.259","","fixation","","",""
"1015","Set1/129b.jpg","78","image-keyboard-response","522","422752","0.0-3.0-1.259","","","Update","n","true"
"null","<div style=""font-size:60px;"">+</div>","null","html-keyboard-response","523","423253","0.0-3.0-0.260","","fixation","","",""
"954","Set1/088a.jpg","79","image-keyboard-response","524","424208","0.0-3.0-1.260","","","Repeat","n","false"
"null","<div style=""font-size:60px;"">+</div>","null","html-keyboard-response","525","424713","0.0-3.0-0.261","","fixation","","",""
"613","Set1/136b.jpg","79","image-keyboard-response","526","425327","0.0-3.0-1.261","","","Update","o","true"
"null","<div style=""font-size:60px;"">+</div>","null","html-keyboard-response","527","425832","0.0-3.0-0.262","","fixation","","",""
"502","Set1/088a.jpg","79","image-keyboard-response","528","426335","0.0-3.0-1.262","","","Repeat","o","true"
"null","<div style=""font-size:60px;"">+</div>","null","html-keyboard-response","529","426836","0.0-3.0-0.263","","fixation","","",""
"-2342","Set1/125b.jpg","78","image-keyboard-response","530","424496","0.0-3.0-1.263","","","Update","n","true"
"null","<div style=""font-size:60px;"">+</div>","null","html-keyboard-response","531","424999","0.0-3.0-0.264","","fixation","","",""
"944","Set1/054a.jpg","79","image-keyboard-response","532","425944","0.0-3.0-1.264","","","Repeat","n","false"
"null","<div style=""font-size:60px;"">+</div>","null","html-keyboard-response","533","426445","0.0-3.0-0.265","","fixation","","",""
"856","Set1/099b.jpg","79","image-keyboard-response","534","427304","0.0-3.0-1.265","","","Update","n","false"
"null","<div style=""font-size:60px;"">+</div>","null","html-keyboard-response","535","427805","0.0-3.0-0.266","","fixation","","",""
"699","Set1/166a.jpg","78","image-keyboard-response","536","428504","0.0-3.0-1.266","","","Set_2_Only","o","false"
"null","<div style=""font-size:60px;"">+</div>","null","html-keyboard-response","537","429005","0.0-3.0-0.267","","fixation","","",""
"1571","Set1/093a.jpg","79","image-keyboard-response","538","430576","0.0-3.0-1.267","","","Repeat","n","false"
"null","<div style=""font-size:60px;"">+</div>","null","html-keyboard-response","539","431079","0.0-3.0-0.268","","fixation","","",""
"1024","Set1/060a.jpg","79","image-keyboard-response","540","432104","0.0-3.0-1.268","","","Repeat","n","false"
"null","<div style=""font-size:60px;"">+</div>","null","html-keyboard-response","541","432606","0.0-3.0-0.269","","fixation","","",""
"705","Set1/110b.jpg","79","image-keyboard-response","542","433312","0.0-3.0-1.269","","","Update","o","true"
"null","<div style=""font-size:60px;"">+</div>","null","html-keyboard-response","543","433817","0.0-3.0-0.270","","fixation","","",""
"757","Set1/093a.jpg","79","image-keyboard-response","544","434575","0.0-3.0-1.270","","","Repeat","o","true"
"null","<div style=""font-size:60px;"">+</div>","null","html-keyboard-response","545","435076","0.0-3.0-0.271","","fixation","","",""
"907","Set1/180a.jpg","78","image-keyboard-response","546","435983","0.0-3.0-1.271","","","Set_2_Only","n","true"
"null","<div style=""font-size:60px;"">+</div>","null","html-keyboard-response","547","436485","0.0-3.0-0.272","","fixation","","",""
"777","Set1/120b.jpg","79","image-keyboard-response","548","437264","0.0-3.0-1.272","","","Update","n","false"
"null","<div style=""font-size:60px;"">+</div>","null","html-keyboard-response","549","437769","0.0-3.0-0.273","","fixation","","",""
"758","Set1/178a.jpg","78","image-keyboard-response","550","438528","0.0-3.0-1.273","","","Set_2_Only","n","true"
"null","<div style=""font-size:60px;"">+</div>","null","html-keyboard-response","551","439033","0.0-3.0-0.274","","fixation","","",""
"758","Set1/079a.jpg","79","image-keyboard-response","552","439791","0.0-3.0-1.274","","","Repeat","n","false"
"null","<div style=""font-size:60px;"">+</div>","null","html-keyboard-response","553","440293","0.0-3.0-0.275","","fixation","","",""
"977","Set1/151b.jpg","78","image-keyboard-response","554","441272","0.0-3.0-1.275","","","Update","n","true"
"null","<div style=""font-size:60px;"">+</div>","null","html-keyboard-response","555","441777","0.0-3.0-0.276","","fixation","","",""
"1279","Set1/181a.jpg","78","image-keyboard-response","556","443056","0.0-3.0-1.276","","","Set_2_Only","n","true"
"null","<div style=""font-size:60px;"">+</div>","null","html-keyboard-response","557","443559","0.0-3.0-0.277","","fixation","","",""
"638","Set1/099b.jpg","79","image-keyboard-response","558","444199","0.0-3.0-1.277","","","Update","o","true"
"null","<div style=""font-size:60px;"">+</div>","null","html-keyboard-response","559","444704","0.0-3.0-0.278","","fixation","","",""
"1119","Set1/102b.jpg","78","image-keyboard-response","560","445823","0.0-3.0-1.278","","","Update","n","true"
"null","<div style=""font-size:60px;"">+</div>","null","html-keyboard-response","561","446328","0.0-3.0-0.279","","fixation","","",""
"790","Set1/167a.jpg","78","image-keyboard-response","562","447119","0.0-3.0-1.279","","","Set_2_Only","n","true"
"null","<div style=""font-size:60px;"">+</div>","null","html-keyboard-response","563","447624","0.0-3.0-0.280","","fixation","","",""
"478","Set1/102b.jpg","78","image-keyboard-response","564","448103","0.0-3.0-1.280","","","Update","o","false"
"null","<div style=""font-size:60px;"">+</div>","null","html-keyboard-response","565","448608","0.0-3.0-0.281","","fixation","","",""
"2030","Set1/092a.jpg","78","image-keyboard-response","566","450639","0.0-3.0-1.281","","","Repeat","n","true"
"null","<div style=""font-size:60px;"">+</div>","null","html-keyboard-response","567","451140","0.0-3.0-0.282","","fixation","","",""
"611","Set1/081a.jpg","79","image-keyboard-response","568","451752","0.0-3.0-1.282","","","Repeat","o","true"
"null","<div style=""font-size:60px;"">+</div>","null","html-keyboard-response","569","452258","0.0-3.0-0.283","","fixation","","",""
"645","Set1/120b.jpg","79","image-keyboard-response","570","452903","0.0-3.0-1.283","","","Update","o","true"
"null","<div style=""font-size:60px;"">+</div>","null","html-keyboard-response","571","453408","0.0-3.0-0.284","","fixation","","",""
"855","Set1/076a.jpg","79","image-keyboard-response","572","454264","0.0-3.0-1.284","","","Repeat","n","false"
"null","<div style=""font-size:60px;"">+</div>","null","html-keyboard-response","573","454768","0.0-3.0-0.285","","fixation","","",""
"670","Set1/033a.jpg","79","image-keyboard-response","574","455438","0.0-3.0-1.285","","","Repeat","n","false"
"null","<div style=""font-size:60px;"">+</div>","null","html-keyboard-response","575","455942","0.0-3.0-0.286","","fixation","","",""
"631","Set1/125b.jpg","79","image-keyboard-response","576","456574","0.0-3.0-1.286","","","Update","o","true"
"null","<div style=""font-size:60px;"">+</div>","null","html-keyboard-response","577","457079","0.0-3.0-0.287","","fixation","","",""
"1102","Set1/127b.jpg","79","image-keyboard-response","578","458183","0.0-3.0-1.287","","","Update","o","true"
"null","<div style=""font-size:60px;"">+</div>","null","html-keyboard-response","579","458683","0.0-3.0-0.288","","fixation","","",""
"595","Set1/092a.jpg","79","image-keyboard-response","580","459279","0.0-3.0-1.288","","","Repeat","o","true"
"null","<div style=""font-size:60px;"">+</div>","null","html-keyboard-response","581","459782","0.0-3.0-0.289","","fixation","","",""
"641","Set1/181a.jpg","79","image-keyboard-response","582","460423","0.0-3.0-1.289","","","Set_2_Only","o","true"
"null","<div style=""font-size:60px;"">+</div>","null","html-keyboard-response","583","460925","0.0-3.0-0.290","","fixation","","",""
"888","Set1/086a.jpg","78","image-keyboard-response","584","461814","0.0-3.0-1.290","","","Repeat","n","true"
"null","<div style=""font-size:60px;"">+</div>","null","html-keyboard-response","585","462319","0.0-3.0-0.291","","fixation","","",""
"662","Set1/109b.jpg","79","image-keyboard-response","586","462982","0.0-3.0-1.291","","","Update","o","true"
"null","<div style=""font-size:60px;"">+</div>","null","html-keyboard-response","587","463487","0.0-3.0-0.292","","fixation","","",""
"670","Set1/167a.jpg","79","image-keyboard-response","588","464159","0.0-3.0-1.292","","","Set_2_Only","o","true"
"null","<div style=""font-size:60px;"">+</div>","null","html-keyboard-response","589","464663","0.0-3.0-0.293","","fixation","","",""
"544","Set1/129b.jpg","79","image-keyboard-response","590","465207","0.0-3.0-1.293","","","Update","o","true"
"null","<div style=""font-size:60px;"">+</div>","null","html-keyboard-response","591","465711","0.0-3.0-0.294","","fixation","","",""
"550","Set1/180a.jpg","79","image-keyboard-response","592","466262","0.0-3.0-1.294","","","Set_2_Only","o","true"
"null","<div style=""font-size:60px;"">+</div>","null","html-keyboard-response","593","466768","0.0-3.0-0.295","","fixation","","",""
"614","Set1/121b.jpg","79","image-keyboard-response","594","467382","0.0-3.0-1.295","","","Update","o","true"
"null","<div style=""font-size:60px;"">+</div>","null","html-keyboard-response","595","467884","0.0-3.0-0.296","","fixation","","",""
"842","Set1/178a.jpg","79","image-keyboard-response","596","468727","0.0-3.0-1.296","","","Set_2_Only","o","true"
"null","<div style=""font-size:60px;"">+</div>","null","html-keyboard-response","597","469229","0.0-3.0-0.297","","fixation","","",""
"769","Set1/094a.jpg","78","image-keyboard-response","598","469999","0.0-3.0-1.297","","","Repeat","n","true"
"null","<div style=""font-size:60px;"">+</div>","null","html-keyboard-response","599","470504","0.0-3.0-0.298","","fixation","","",""
"550","Set1/137b.jpg","79","image-keyboard-response","600","471054","0.0-3.0-1.298","","","Update","o","true"
"null","<div style=""font-size:60px;"">+</div>","null","html-keyboard-response","601","471557","0.0-3.0-0.299","","fixation","","",""
"569","Set1/060a.jpg","79","image-keyboard-response","602","472127","0.0-3.0-1.299","","","Repeat","o","true"
"null","<div style=""font-size:60px;"">+</div>","null","html-keyboard-response","603","472627","0.0-3.0-0.300","","fixation","","",""
"626","Set1/133b.jpg","79","image-keyboard-response","604","473254","0.0-3.0-1.300","","","Update","o","true"
"null","<div style=""font-size:60px;"">+</div>","null","html-keyboard-response","605","473755","0.0-3.0-0.301","","fixation","","",""
"594","Set1/164a.jpg","79","image-keyboard-response","606","474350","0.0-3.0-1.301","","","Set_2_Only","o","true"
"null","<div style=""font-size:60px;"">+</div>","null","html-keyboard-response","607","474852","0.0-3.0-0.302","","fixation","","",""
"529","Set1/054a.jpg","79","image-keyboard-response","608","475382","0.0-3.0-1.302","","","Repeat","o","true"
"null","<div style=""font-size:60px;"">+</div>","null","html-keyboard-response","609","475886","0.0-3.0-0.303","","fixation","","",""
"670","Set1/117b.jpg","79","image-keyboard-response","610","476557","0.0-3.0-1.303","","","Update","o","true"
"null","<div style=""font-size:60px;"">+</div>","null","html-keyboard-response","611","477059","0.0-3.0-0.304","","fixation","","",""
"562","Set1/049a.jpg","79","image-keyboard-response","612","477622","0.0-3.0-1.304","","","Repeat","o","true"
"null","<div style=""font-size:60px;"">+</div>","null","html-keyboard-response","613","478126","0.0-3.0-0.305","","fixation","","",""
"592","Set1/132b.jpg","79","image-keyboard-response","614","478718","0.0-3.0-1.305","","","Update","o","true"
"null","<div style=""font-size:60px;"">+</div>","null","html-keyboard-response","615","479219","0.0-3.0-0.306","","fixation","","",""
"826","Set1/151b.jpg","79","image-keyboard-response","616","480046","0.0-3.0-1.306","","","Update","o","true"
"null","<div style=""font-size:60px;"">+</div>","null","html-keyboard-response","617","480547","0.0-3.0-0.307","","fixation","","",""
"923","Set1/086a.jpg","79","image-keyboard-response","618","481470","0.0-3.0-1.307","","","Repeat","o","true"
"null","<div style=""font-size:60px;"">+</div>","null","html-keyboard-response","619","481974","0.0-3.0-0.308","","fixation","","",""
"983","Set1/160b.jpg","79","image-keyboard-response","620","482958","0.0-3.0-1.308","","","Update","n","false"
"null","<div style=""font-size:60px;"">+</div>","null","html-keyboard-response","621","483463","0.0-3.0-0.309","","fixation","","",""
"686","Set1/094a.jpg","79","image-keyboard-response","622","484150","0.0-3.0-1.309","","","Repeat","o","true"
"null","<div style=""font-size:60px;"">+</div>","null","html-keyboard-response","623","484651","0.0-3.0-0.310","","fixation","","",""
"683","Set1/146b.jpg","79","image-keyboard-response","624","485334","0.0-3.0-1.310","","","Update","o","true"
"null","<div style=""font-size:60px;"">+</div>","null","html-keyboard-response","625","485835","0.0-3.0-0.311","","fixation","","",""
"1291","Set1/160b.jpg","79","image-keyboard-response","626","487126","0.0-3.0-1.311","","","Update","o","true"
"null","<div style=""font-size:60px;"">+</div>","null","html-keyboard-response","627","487629","0.0-3.0-0.312","","fixation","","",""
"721","Set1/072a.jpg","79","image-keyboard-response","628","488350","0.0-3.0-1.312","","","Repeat","o","true"
"null","<div style=""font-size:60px;"">+</div>","null","html-keyboard-response","629","488852","0.0-3.0-0.313","","fixation","","",""
"792","Set1/076a.jpg","79","image-keyboard-response","630","489646","0.0-3.0-1.313","","","Repeat","o","true"
"null","<div style=""font-size:60px;"">+</div>","null","html-keyboard-response","631","490151","0.0-3.0-0.314","","fixation","","",""
"590","Set1/079a.jpg","79","image-keyboard-response","632","490742","0.0-3.0-1.314","","","Repeat","o","true"
"null","<div style=""font-size:60px;"">+</div>","null","html-keyboard-response","633","491246","0.0-3.0-0.315","","fixation","","",""
"567","Set1/033a.jpg","79","image-keyboard-response","634","491814","0.0-3.0-1.315","","","Repeat","o","true"
"null","<div style=""font-size:60px;"">+</div>","null","html-keyboard-response","635","492319","0.0-3.0-0.316","","fixation","","",""
"1006","Set1/051a.jpg","79","image-keyboard-response","636","493325","0.0-3.0-1.316","","","Repeat","n","false"
"null","<div style=""font-size:60px;"">+</div>","null","html-keyboard-response","637","493831","0.0-3.0-0.317","","fixation","","",""
"644","Set1/077a.jpg","79","image-keyboard-response","638","494478","0.0-3.0-1.317","","","Repeat","o","true"
"null","<div style=""font-size:60px;"">+</div>","null","html-keyboard-response","639","494978","0.0-3.0-0.318","","fixation","","",""
"642","Set1/051a.jpg","79","image-keyboard-response","640","495622","0.0-3.0-1.318","","","Repeat","o","true"
"null","<div style=""font-size:60px;"">+</div>","null","html-keyboard-response","641","496126","0.0-3.0-0.319","","fixation","","",""
"798","Set1/063a.jpg","79","image-keyboard-response","642","496925","0.0-3.0-1.319","","","Repeat","o","true"
