"rt","stimulus","key_press","trial_type","trial_index","time_elapsed","internal_node_id","responses","test_part","stim_type","correct_response","correct"
"3513","Press any key to begin.","32","html-keyboard-response","0","3540","0.0-0.0","","","","",""
"5213","","","survey-text","1","8760","0.0-1.0","{""Q0"":""Set2_128719"",""Q1"":""""}","","","",""
"3381","<p>In this experiment you will see a series of everyday objects presented one at a time at the center of the screen. Each image will be presented twice.</p><p>The first time you see the image, press the N key to indicat that it is a NEW image. The second time you see the image, press the O key to indicate that it is an OLD image.</p><p>Some of the images will be repeats from the first session of this task you did yesterday. I want you to treat those images as 'OLD' if you remember seeing them before. Some of the images will be very similar but not identical to an image that you have seen in the previous set. I want you to treat those images as 'NEW' the first time you see them and 'OLD' the second time.</p><div style='width: 700px;'></div><p>Press any key to begin.</p>","32","html-keyboard-response","2","12142","0.0-2.0","","","","",""
"null","<div style=""font-size:60px;"">+</div>","null","html-keyboard-response","3","14671","0.0-3.0-0.0","","fixation","","",""
"3629","Set1/037a.jpg","79","image-keyboard-response","4","18304","0.0-3.0-1.0","","","Repeat","n","false"
"null","<div style=""font-size:60px;"">+</div>","null","html-keyboard-response","5","18819","0.0-3.0-0.1","","fixation","","",""
"1160","Set1/095a.jpg","78","image-keyboard-response","6","19983","0.0-3.0-1.1","","","Repeat","n","true"
"null","<div style=""font-size:60px;"">+</div>","null","html-keyboard-response","7","20484","0.0-3.0-0.2","","fixation","","",""
"1015","Set1/080a.jpg","79","image-keyboard-response","8","21501","0.0-3.0-1.2","","","Repeat","n","false"
"null","<div style=""font-size:60px;"">+</div>","null","html-keyboard-response","9","22018","0.0-3.0-0.3","","fixation","","",""
"979","Set1/142b.jpg","78","image-keyboard-response","10","22999","0.0-3.0-1.3","","","Update","n","true"
"null","<div style=""font-size:60px;"">+</div>","null","html-keyboard-response","11","23515","0.0-3.0-0.4","","fixation","","",""
"912","Set1/179a.jpg","78","image-keyboard-response","12","24431","0.0-3.0-1.4","","","Set_2_Only","n","true"
"null","<div style=""font-size:60px;"">+</div>","null","html-keyboard-response","13","24933","0.0-3.0-0.5","","fixation","","",""
"801","Set1/039a.jpg","79","image-keyboard-response","14","25737","0.0-3.0-1.5","","","Repeat","n","false"
"null","<div style=""font-size:60px;"">+</div>","null","html-keyboard-response","15","26251","0.0-3.0-0.6","","fixation","","",""
"719","Set1/172a.jpg","78","image-keyboard-response","16","26970","0.0-3.0-1.6","","","Set_2_Only","n","true"
"null","<div style=""font-size:60px;"">+</div>","null","html-keyboard-response","17","27482","0.0-3.0-0.7","","fixation","","",""
"786","Set1/075a.jpg","79","image-keyboard-response","18","28270","0.0-3.0-1.7","","","Repeat","n","false"
"null","<div style=""font-size:60px;"">+</div>","null","html-keyboard-response","19","28782","0.0-3.0-0.8","","fixation","","",""
"840","Set1/090a.jpg","79","image-keyboard-response","20","29624","0.0-3.0-1.8","","","Repeat","n","false"
"null","<div style=""font-size:60px;"">+</div>","null","html-keyboard-response","21","30130","0.0-3.0-0.9","","fixation","","",""
"869","Set1/148b.jpg","79","image-keyboard-response","22","31000","0.0-3.0-1.9","","","Update","n","false"
"null","<div style=""font-size:60px;"">+</div>","null","html-keyboard-response","23","31513","0.0-3.0-0.10","","fixation","","",""
"1003","Set1/172a.jpg","79","image-keyboard-response","24","32518","0.0-3.0-1.10","","","Set_2_Only","o","true"
"null","<div style=""font-size:60px;"">+</div>","null","html-keyboard-response","25","33029","0.0-3.0-0.11","","fixation","","",""
"857","Set1/035a.jpg","79","image-keyboard-response","26","33886","0.0-3.0-1.11","","","Repeat","n","false"
"null","<div style=""font-size:60px;"">+</div>","null","html-keyboard-response","27","34394","0.0-3.0-0.12","","fixation","","",""
"740","Set1/170a.jpg","78","image-keyboard-response","28","35134","0.0-3.0-1.12","","","Set_2_Only","n","true"
"null","<div style=""font-size:60px;"">+</div>","null","html-keyboard-response","29","35645","0.0-3.0-0.13","","fixation","","",""
"854","Set1/179a.jpg","79","image-keyboard-response","30","36501","0.0-3.0-1.13","","","Set_2_Only","o","true"
"null","<div style=""font-size:60px;"">+</div>","null","html-keyboard-response","31","37012","0.0-3.0-0.14","","fixation","","",""
"906","Set1/153b.jpg","78","image-keyboard-response","32","37920","0.0-3.0-1.14","","","Update","n","true"
"null","<div style=""font-size:60px;"">+</div>","null","html-keyboard-response","33","38425","0.0-3.0-0.15","","fixation","","",""
"820","Set1/083a.jpg","79","image-keyboard-response","34","39247","0.0-3.0-1.15","","","Repeat","n","false"
"null","<div style=""font-size:60px;"">+</div>","null","html-keyboard-response","35","39760","0.0-3.0-0.16","","fixation","","",""
"861","Set1/126b.jpg","78","image-keyboard-response","36","40622","0.0-3.0-1.16","","","Update","n","true"
"null","<div style=""font-size:60px;"">+</div>","null","html-keyboard-response","37","41125","0.0-3.0-0.17","","fixation","","",""
"1047","Set1/135b.jpg","79","image-keyboard-response","38","42174","0.0-3.0-1.17","","","Update","n","false"
"null","<div style=""font-size:60px;"">+</div>","null","html-keyboard-response","39","42692","0.0-3.0-0.18","","fixation","","",""
"986","Set1/108b.jpg","79","image-keyboard-response","40","43679","0.0-3.0-1.18","","","Update","n","false"
"null","<div style=""font-size:60px;"">+</div>","null","html-keyboard-response","41","44192","0.0-3.0-0.19","","fixation","","",""
"892","Set1/142b.jpg","79","image-keyboard-response","42","45086","0.0-3.0-1.19","","","Update","o","true"
"null","<div style=""font-size:60px;"">+</div>","null","html-keyboard-response","43","45591","0.0-3.0-0.20","","fixation","","",""
"1408","Set1/138b.jpg","78","image-keyboard-response","44","46999","0.0-3.0-1.20","","","Update","n","true"
"null","<div style=""font-size:60px;"">+</div>","null","html-keyboard-response","45","47509","0.0-3.0-0.21","","fixation","","",""
"967","Set1/171a.jpg","78","image-keyboard-response","46","48478","0.0-3.0-1.21","","","Set_2_Only","n","true"
"null","<div style=""font-size:60px;"">+</div>","null","html-keyboard-response","47","48989","0.0-3.0-0.22","","fixation","","",""
"705","Set1/148b.jpg","79","image-keyboard-response","48","49695","0.0-3.0-1.22","","","Update","o","true"
"null","<div style=""font-size:60px;"">+</div>","null","html-keyboard-response","49","50207","0.0-3.0-0.23","","fixation","","",""
"600","Set1/083a.jpg","79","image-keyboard-response","50","50807","0.0-3.0-1.23","","","Repeat","o","true"
"null","<div style=""font-size:60px;"">+</div>","null","html-keyboard-response","51","51322","0.0-3.0-0.24","","fixation","","",""
"913","Set1/141b.jpg","79","image-keyboard-response","52","52238","0.0-3.0-1.24","","","Update","n","false"
"null","<div style=""font-size:60px;"">+</div>","null","html-keyboard-response","53","52752","0.0-3.0-0.25","","fixation","","",""
"1063","Set1/123b.jpg","79","image-keyboard-response","54","53817","0.0-3.0-1.25","","","Update","n","false"
"null","<div style=""font-size:60px;"">+</div>","null","html-keyboard-response","55","54335","0.0-3.0-0.26","","fixation","","",""
"1182","Set1/145b.jpg","79","image-keyboard-response","56","55519","0.0-3.0-1.26","","","Update","n","false"
"null","<div style=""font-size:60px;"">+</div>","null","html-keyboard-response","57","56033","0.0-3.0-0.27","","fixation","","",""
"1002","Set1/175a.jpg","78","image-keyboard-response","58","57037","0.0-3.0-1.27","","","Set_2_Only","n","true"
"null","<div style=""font-size:60px;"">+</div>","null","html-keyboard-response","59","57551","0.0-3.0-0.28","","fixation","","",""
"773","Set1/177a.jpg","78","image-keyboard-response","60","58327","0.0-3.0-1.28","","","Set_2_Only","n","true"
"null","<div style=""font-size:60px;"">+</div>","null","html-keyboard-response","61","58832","0.0-3.0-0.29","","fixation","","",""
"820","Set1/119b.jpg","78","image-keyboard-response","62","59656","0.0-3.0-1.29","","","Update","n","true"
"null","<div style=""font-size:60px;"">+</div>","null","html-keyboard-response","63","60169","0.0-3.0-0.30","","fixation","","",""
"810","Set1/177a.jpg","79","image-keyboard-response","64","60983","0.0-3.0-1.30","","","Set_2_Only","o","true"
"null","<div style=""font-size:60px;"">+</div>","null","html-keyboard-response","65","61498","0.0-3.0-0.31","","fixation","","",""
"978","Set1/038a.jpg","79","image-keyboard-response","66","62478","0.0-3.0-1.31","","","Repeat","n","false"
"null","<div style=""font-size:60px;"">+</div>","null","html-keyboard-response","67","62983","0.0-3.0-0.32","","fixation","","",""
"589","Set1/035a.jpg","79","image-keyboard-response","68","63576","0.0-3.0-1.32","","","Repeat","o","true"
"null","<div style=""font-size:60px;"">+</div>","null","html-keyboard-response","69","64084","0.0-3.0-0.33","","fixation","","",""
"839","Set1/171a.jpg","78","image-keyboard-response","70","64926","0.0-3.0-1.33","","","Set_2_Only","o","false"
"null","<div style=""font-size:60px;"">+</div>","null","html-keyboard-response","71","65429","0.0-3.0-0.34","","fixation","","",""
"1807","Set1/157b.jpg","78","image-keyboard-response","72","67239","0.0-3.0-1.34","","","Update","n","true"
"null","<div style=""font-size:60px;"">+</div>","null","html-keyboard-response","73","67746","0.0-3.0-0.35","","fixation","","",""
"882","Set1/170a.jpg","79","image-keyboard-response","74","68631","0.0-3.0-1.35","","","Set_2_Only","o","true"
"null","<div style=""font-size:60px;"">+</div>","null","html-keyboard-response","75","69146","0.0-3.0-0.36","","fixation","","",""
"1289","Set1/135b.jpg","79","image-keyboard-response","76","70440","0.0-3.0-1.36","","","Update","o","true"
"null","<div style=""font-size:60px;"">+</div>","null","html-keyboard-response","77","70949","0.0-3.0-0.37","","fixation","","",""
"617","Set1/090a.jpg","79","image-keyboard-response","78","71566","0.0-3.0-1.37","","","Repeat","o","true"
"null","<div style=""font-size:60px;"">+</div>","null","html-keyboard-response","79","72079","0.0-3.0-0.38","","fixation","","",""
"636","Set1/095a.jpg","79","image-keyboard-response","80","72719","0.0-3.0-1.38","","","Repeat","o","true"
"null","<div style=""font-size:60px;"">+</div>","null","html-keyboard-response","81","73230","0.0-3.0-0.39","","fixation","","",""
"692","Set1/108b.jpg","79","image-keyboard-response","82","73926","0.0-3.0-1.39","","","Update","o","true"
"null","<div style=""font-size:60px;"">+</div>","null","html-keyboard-response","83","74444","0.0-3.0-0.40","","fixation","","",""
"914","Set1/040a.jpg","79","image-keyboard-response","84","75358","0.0-3.0-1.40","","","Repeat","n","false"
"null","<div style=""font-size:60px;"">+</div>","null","html-keyboard-response","85","75876","0.0-3.0-0.41","","fixation","","",""
"734","Set1/058a.jpg","79","image-keyboard-response","86","76614","0.0-3.0-1.41","","","Repeat","n","false"
"null","<div style=""font-size:60px;"">+</div>","null","html-keyboard-response","87","77128","0.0-3.0-0.42","","fixation","","",""
"1220","Set1/140b.jpg","79","image-keyboard-response","88","78350","0.0-3.0-1.42","","","Update","n","false"
"null","<div style=""font-size:60px;"">+</div>","null","html-keyboard-response","89","78861","0.0-3.0-0.43","","fixation","","",""
"736","Set1/037a.jpg","79","image-keyboard-response","90","79597","0.0-3.0-1.43","","","Repeat","o","true"
"null","<div style=""font-size:60px;"">+</div>","null","html-keyboard-response","91","80109","0.0-3.0-0.44","","fixation","","",""
"639","Set1/153b.jpg","79","image-keyboard-response","92","80750","0.0-3.0-1.44","","","Update","o","true"
"null","<div style=""font-size:60px;"">+</div>","null","html-keyboard-response","93","81258","0.0-3.0-0.45","","fixation","","",""
"754","Set1/168a.jpg","79","image-keyboard-response","94","82014","0.0-3.0-1.45","","","Set_2_Only","n","false"
"null","<div style=""font-size:60px;"">+</div>","null","html-keyboard-response","95","82524","0.0-3.0-0.46","","fixation","","",""
"920","Set1/091a.jpg","79","image-keyboard-response","96","83446","0.0-3.0-1.46","","","Repeat","n","false"
"null","<div style=""font-size:60px;"">+</div>","null","html-keyboard-response","97","83956","0.0-3.0-0.47","","fixation","","",""
"681","Set1/119b.jpg","79","image-keyboard-response","98","84639","0.0-3.0-1.47","","","Update","o","true"
"null","<div style=""font-size:60px;"">+</div>","null","html-keyboard-response","99","85140","0.0-3.0-0.48","","fixation","","",""
"921","Set1/168a.jpg","79","image-keyboard-response","100","86063","0.0-3.0-1.48","","","Set_2_Only","o","true"
"null","<div style=""font-size:60px;"">+</div>","null","html-keyboard-response","101","86572","0.0-3.0-0.49","","fixation","","",""
"711","Set1/038a.jpg","79","image-keyboard-response","102","87285","0.0-3.0-1.49","","","Repeat","o","true"
"null","<div style=""font-size:60px;"">+</div>","null","html-keyboard-response","103","87788","0.0-3.0-0.50","","fixation","","",""
"3451","Set1/154b.jpg","78","image-keyboard-response","104","91241","0.0-3.0-1.50","","","Update","n","true"
"null","<div style=""font-size:60px;"">+</div>","null","html-keyboard-response","105","91752","0.0-3.0-0.51","","fixation","","",""
"732","Set1/067a.jpg","79","image-keyboard-response","106","92486","0.0-3.0-1.51","","","Repeat","n","false"
"null","<div style=""font-size:60px;"">+</div>","null","html-keyboard-response","107","92989","0.0-3.0-0.52","","fixation","","",""
"824","Set1/080a.jpg","79","image-keyboard-response","108","93813","0.0-3.0-1.52","","","Repeat","o","true"
"null","<div style=""font-size:60px;"">+</div>","null","html-keyboard-response","109","94320","0.0-3.0-0.53","","fixation","","",""
"535","Set1/154b.jpg","79","image-keyboard-response","110","94855","0.0-3.0-1.53","","","Update","o","true"
"null","<div style=""font-size:60px;"">+</div>","null","html-keyboard-response","111","95370","0.0-3.0-0.54","","fixation","","",""
"882","Set1/087a.jpg","79","image-keyboard-response","112","96253","0.0-3.0-1.54","","","Repeat","n","false"
"null","<div style=""font-size:60px;"">+</div>","null","html-keyboard-response","113","96769","0.0-3.0-0.55","","fixation","","",""
"736","Set1/149b.jpg","79","image-keyboard-response","114","97509","0.0-3.0-1.55","","","Update","n","false"
"null","<div style=""font-size:60px;"">+</div>","null","html-keyboard-response","115","98018","0.0-3.0-0.56","","fixation","","",""
"827","Set1/173a.jpg","78","image-keyboard-response","116","98846","0.0-3.0-1.56","","","Set_2_Only","n","true"
"null","<div style=""font-size:60px;"">+</div>","null","html-keyboard-response","117","99350","0.0-3.0-0.57","","fixation","","",""
"614","Set1/040a.jpg","79","image-keyboard-response","118","99966","0.0-3.0-1.57","","","Repeat","o","true"
"null","<div style=""font-size:60px;"">+</div>","null","html-keyboard-response","119","100482","0.0-3.0-0.58","","fixation","","",""
"761","Set1/058a.jpg","79","image-keyboard-response","120","101245","0.0-3.0-1.58","","","Repeat","o","true"
"null","<div style=""font-size:60px;"">+</div>","null","html-keyboard-response","121","101750","0.0-3.0-0.59","","fixation","","",""
"566","Set1/173a.jpg","79","image-keyboard-response","122","102318","0.0-3.0-1.59","","","Set_2_Only","o","true"
"null","<div style=""font-size:60px;"">+</div>","null","html-keyboard-response","123","102832","0.0-3.0-0.60","","fixation","","",""
"644","Set1/140b.jpg","79","image-keyboard-response","124","103478","0.0-3.0-1.60","","","Update","o","true"
"null","<div style=""font-size:60px;"">+</div>","null","html-keyboard-response","125","103981","0.0-3.0-0.61","","fixation","","",""
"966","Set1/187a.jpg","78","image-keyboard-response","126","104951","0.0-3.0-1.61","","","Set_2_Only","n","true"
"null","<div style=""font-size:60px;"">+</div>","null","html-keyboard-response","127","105467","0.0-3.0-0.62","","fixation","","",""
"491","Set1/067a.jpg","79","image-keyboard-response","128","105958","0.0-3.0-1.62","","","Repeat","o","true"
"null","<div style=""font-size:60px;"">+</div>","null","html-keyboard-response","129","106465","0.0-3.0-0.63","","fixation","","",""
"635","Set1/126b.jpg","79","image-keyboard-response","130","107102","0.0-3.0-1.63","","","Update","o","true"
"null","<div style=""font-size:60px;"">+</div>","null","html-keyboard-response","131","107614","0.0-3.0-0.64","","fixation","","",""
"845","Set1/188a.jpg","78","image-keyboard-response","132","108463","0.0-3.0-1.64","","","Set_2_Only","n","true"
"null","<div style=""font-size:60px;"">+</div>","null","html-keyboard-response","133","108978","0.0-3.0-0.65","","fixation","","",""
"692","Set1/145b.jpg","79","image-keyboard-response","134","109671","0.0-3.0-1.65","","","Update","o","true"
"null","<div style=""font-size:60px;"">+</div>","null","html-keyboard-response","135","110178","0.0-3.0-0.66","","fixation","","",""
"553","Set1/075a.jpg","79","image-keyboard-response","136","110736","0.0-3.0-1.66","","","Repeat","o","true"
"null","<div style=""font-size:60px;"">+</div>","null","html-keyboard-response","137","111247","0.0-3.0-0.67","","fixation","","",""
"815","Set1/059a.jpg","79","image-keyboard-response","138","112062","0.0-3.0-1.67","","","Repeat","n","false"
"null","<div style=""font-size:60px;"">+</div>","null","html-keyboard-response","139","112580","0.0-3.0-0.68","","fixation","","",""
"602","Set1/149b.jpg","79","image-keyboard-response","140","113182","0.0-3.0-1.68","","","Update","o","true"
"null","<div style=""font-size:60px;"">+</div>","null","html-keyboard-response","141","113696","0.0-3.0-0.69","","fixation","","",""
"587","Set1/087a.jpg","79","image-keyboard-response","142","114287","0.0-3.0-1.69","","","Repeat","o","true"
"null","<div style=""font-size:60px;"">+</div>","null","html-keyboard-response","143","114796","0.0-3.0-0.70","","fixation","","",""
"931","Set1/187a.jpg","79","image-keyboard-response","144","115729","0.0-3.0-1.70","","","Set_2_Only","o","true"
"null","<div style=""font-size:60px;"">+</div>","null","html-keyboard-response","145","116243","0.0-3.0-0.71","","fixation","","",""
"560","Set1/059a.jpg","79","image-keyboard-response","146","116805","0.0-3.0-1.71","","","Repeat","o","true"
"null","<div style=""font-size:60px;"">+</div>","null","html-keyboard-response","147","117310","0.0-3.0-0.72","","fixation","","",""
"742","Set1/157b.jpg","79","image-keyboard-response","148","118054","0.0-3.0-1.72","","","Update","o","true"
"null","<div style=""font-size:60px;"">+</div>","null","html-keyboard-response","149","118561","0.0-3.0-0.73","","fixation","","",""
"571","Set1/123b.jpg","79","image-keyboard-response","150","119134","0.0-3.0-1.73","","","Update","o","true"
"null","<div style=""font-size:60px;"">+</div>","null","html-keyboard-response","151","119641","0.0-3.0-0.74","","fixation","","",""
"1709","Set1/175a.jpg","79","image-keyboard-response","152","121350","0.0-3.0-1.74","","","Set_2_Only","o","true"
"null","<div style=""font-size:60px;"">+</div>","null","html-keyboard-response","153","121859","0.0-3.0-0.75","","fixation","","",""
"747","Set1/188a.jpg","79","image-keyboard-response","154","122608","0.0-3.0-1.75","","","Set_2_Only","o","true"
"null","<div style=""font-size:60px;"">+</div>","null","html-keyboard-response","155","123125","0.0-3.0-0.76","","fixation","","",""
"552","Set1/039a.jpg","79","image-keyboard-response","156","123679","0.0-3.0-1.76","","","Repeat","o","true"
"null","<div style=""font-size:60px;"">+</div>","null","html-keyboard-response","157","124190","0.0-3.0-0.77","","fixation","","",""
"1023","Set1/141b.jpg","79","image-keyboard-response","158","125215","0.0-3.0-1.77","","","Update","o","true"
"null","<div style=""font-size:60px;"">+</div>","null","html-keyboard-response","159","125725","0.0-3.0-0.78","","fixation","","",""
"654","Set1/091a.jpg","79","image-keyboard-response","160","126381","0.0-3.0-1.78","","","Repeat","o","true"
"null","<div style=""font-size:60px;"">+</div>","null","html-keyboard-response","161","126890","0.0-3.0-0.79","","fixation","","",""
"907","Set1/138b.jpg","79","image-keyboard-response","162","127798","0.0-3.0-1.79","","","Update","o","true"
"null","<div style=""font-size:60px;"">+</div>","null","html-keyboard-response","163","128304","0.0-3.0-0.80","","fixation","","",""
"924","Set1/055a.jpg","79","image-keyboard-response","164","129232","0.0-3.0-1.80","","","Repeat","n","false"
"null","<div style=""font-size:60px;"">+</div>","null","html-keyboard-response","165","129738","0.0-3.0-0.81","","fixation","","",""
"986","Set1/128b.jpg","79","image-keyboard-response","166","130725","0.0-3.0-1.81","","","Update","n","false"
"null","<div style=""font-size:60px;"">+</div>","null","html-keyboard-response","167","131241","0.0-3.0-0.82","","fixation","","",""
"893","Set1/046a.jpg","79","image-keyboard-response","168","132134","0.0-3.0-1.82","","","Repeat","n","false"
"null","<div style=""font-size:60px;"">+</div>","null","html-keyboard-response","169","132637","0.0-3.0-0.83","","fixation","","",""
"1055","Set1/139b.jpg","79","image-keyboard-response","170","133694","0.0-3.0-1.83","","","Update","n","false"
"null","<div style=""font-size:60px;"">+</div>","null","html-keyboard-response","171","134203","0.0-3.0-0.84","","fixation","","",""
"841","Set1/084a.jpg","79","image-keyboard-response","172","135046","0.0-3.0-1.84","","","Repeat","n","false"
"null","<div style=""font-size:60px;"">+</div>","null","html-keyboard-response","173","135551","0.0-3.0-0.85","","fixation","","",""
"1076","Set1/147b.jpg","78","image-keyboard-response","174","136630","0.0-3.0-1.85","","","Update","n","true"
"null","<div style=""font-size:60px;"">+</div>","null","html-keyboard-response","175","137134","0.0-3.0-0.86","","fixation","","",""
"800","Set1/176a.jpg","78","image-keyboard-response","176","137935","0.0-3.0-1.86","","","Set_2_Only","n","true"
"null","<div style=""font-size:60px;"">+</div>","null","html-keyboard-response","177","138448","0.0-3.0-0.87","","fixation","","",""
"1275","Set1/042a.jpg","79","image-keyboard-response","178","139727","0.0-3.0-1.87","","","Repeat","n","false"
"null","<div style=""font-size:60px;"">+</div>","null","html-keyboard-response","179","140236","0.0-3.0-0.88","","fixation","","",""
"841","Set1/114b.jpg","79","image-keyboard-response","180","141081","0.0-3.0-1.88","","","Update","n","false"
"null","<div style=""font-size:60px;"">+</div>","null","html-keyboard-response","181","141597","0.0-3.0-0.89","","fixation","","",""
"950","Set1/064a.jpg","79","image-keyboard-response","182","142551","0.0-3.0-1.89","","","Repeat","n","false"
"null","<div style=""font-size:60px;"">+</div>","null","html-keyboard-response","183","143065","0.0-3.0-0.90","","fixation","","",""
"891","Set1/036a.jpg","79","image-keyboard-response","184","143958","0.0-3.0-1.90","","","Repeat","n","false"
"null","<div style=""font-size:60px;"">+</div>","null","html-keyboard-response","185","144465","0.0-3.0-0.91","","fixation","","",""
"555","Set1/139b.jpg","79","image-keyboard-response","186","145022","0.0-3.0-1.91","","","Update","o","true"
"null","<div style=""font-size:60px;"">+</div>","null","html-keyboard-response","187","145532","0.0-3.0-0.92","","fixation","","",""
"648","Set1/128b.jpg","79","image-keyboard-response","188","146182","0.0-3.0-1.92","","","Update","o","true"
"null","<div style=""font-size:60px;"">+</div>","null","html-keyboard-response","189","146696","0.0-3.0-0.93","","fixation","","",""
"740","Set1/044a.jpg","79","image-keyboard-response","190","147438","0.0-3.0-1.93","","","Repeat","n","false"
"null","<div style=""font-size:60px;"">+</div>","null","html-keyboard-response","191","147945","0.0-3.0-0.94","","fixation","","",""
"843","Set1/162a.jpg","78","image-keyboard-response","192","148790","0.0-3.0-1.94","","","Set_2_Only","n","true"
"null","<div style=""font-size:60px;"">+</div>","null","html-keyboard-response","193","149299","0.0-3.0-0.95","","fixation","","",""
"745","Set1/074a.jpg","79","image-keyboard-response","194","150046","0.0-3.0-1.95","","","Repeat","n","false"
"null","<div style=""font-size:60px;"">+</div>","null","html-keyboard-response","195","150562","0.0-3.0-0.96","","fixation","","",""
"692","Set1/114b.jpg","79","image-keyboard-response","196","151255","0.0-3.0-1.96","","","Update","o","true"
"null","<div style=""font-size:60px;"">+</div>","null","html-keyboard-response","197","151761","0.0-3.0-0.97","","fixation","","",""
"1243","Set1/159b.jpg","78","image-keyboard-response","198","153006","0.0-3.0-1.97","","","Update","n","true"
"null","<div style=""font-size:60px;"">+</div>","null","html-keyboard-response","199","153511","0.0-3.0-0.98","","fixation","","",""
"941","Set1/143b.jpg","79","image-keyboard-response","200","154454","0.0-3.0-1.98","","","Update","n","false"
"null","<div style=""font-size:60px;"">+</div>","null","html-keyboard-response","201","154960","0.0-3.0-0.99","","fixation","","",""
"1102","Set1/103b.jpg","78","image-keyboard-response","202","156062","0.0-3.0-1.99","","","Update","n","true"
"null","<div style=""font-size:60px;"">+</div>","null","html-keyboard-response","203","156574","0.0-3.0-0.100","","fixation","","",""
"1126","Set1/047a.jpg","78","image-keyboard-response","204","157702","0.0-3.0-1.100","","","Repeat","n","true"
"null","<div style=""font-size:60px;"">+</div>","null","html-keyboard-response","205","158209","0.0-3.0-0.101","","fixation","","",""
"690","Set1/064a.jpg","79","image-keyboard-response","206","158903","0.0-3.0-1.101","","","Repeat","o","true"
"null","<div style=""font-size:60px;"">+</div>","null","html-keyboard-response","207","159410","0.0-3.0-0.102","","fixation","","",""
"932","Set1/191a.jpg","78","image-keyboard-response","208","160344","0.0-3.0-1.102","","","Set_2_Only","n","true"
"null","<div style=""font-size:60px;"">+</div>","null","html-keyboard-response","209","160857","0.0-3.0-0.103","","fixation","","",""
"767","Set1/071a.jpg","79","image-keyboard-response","210","161624","0.0-3.0-1.103","","","Repeat","n","false"
"null","<div style=""font-size:60px;"">+</div>","null","html-keyboard-response","211","162140","0.0-3.0-0.104","","fixation","","",""
"768","Set1/096a.jpg","79","image-keyboard-response","212","162910","0.0-3.0-1.104","","","Repeat","n","false"
"null","<div style=""font-size:60px;"">+</div>","null","html-keyboard-response","213","163425","0.0-3.0-0.105","","fixation","","",""
"1189","Set1/098b.jpg","78","image-keyboard-response","214","164614","0.0-3.0-1.105","","","Update","n","true"
"null","<div style=""font-size:60px;"">+</div>","null","html-keyboard-response","215","165125","0.0-3.0-0.106","","fixation","","",""
"841","Set1/106b.jpg","78","image-keyboard-response","216","165966","0.0-3.0-1.106","","","Update","n","true"
"null","<div style=""font-size:60px;"">+</div>","null","html-keyboard-response","217","166471","0.0-3.0-0.107","","fixation","","",""
"828","Set1/159b.jpg","78","image-keyboard-response","218","167302","0.0-3.0-1.107","","","Update","o","false"
"null","<div style=""font-size:60px;"">+</div>","null","html-keyboard-response","219","167805","0.0-3.0-0.108","","fixation","","",""
"633","Set1/071a.jpg","79","image-keyboard-response","220","168438","0.0-3.0-1.108","","","Repeat","o","true"
"null","<div style=""font-size:60px;"">+</div>","null","html-keyboard-response","221","168956","0.0-3.0-0.109","","fixation","","",""
"687","Set1/047a.jpg","79","image-keyboard-response","222","169647","0.0-3.0-1.109","","","Repeat","o","true"
"null","<div style=""font-size:60px;"">+</div>","null","html-keyboard-response","223","170155","0.0-3.0-0.110","","fixation","","",""
"1008","Set1/144b.jpg","79","image-keyboard-response","224","171165","0.0-3.0-1.110","","","Update","n","false"
"null","<div style=""font-size:60px;"">+</div>","null","html-keyboard-response","225","171671","0.0-3.0-0.111","","fixation","","",""
"885","Set1/069a.jpg","79","image-keyboard-response","226","172559","0.0-3.0-1.111","","","Repeat","n","false"
"null","<div style=""font-size:60px;"">+</div>","null","html-keyboard-response","227","173071","0.0-3.0-0.112","","fixation","","",""
"774","Set1/034a.jpg","79","image-keyboard-response","228","173848","0.0-3.0-1.112","","","Repeat","n","false"
"null","<div style=""font-size:60px;"">+</div>","null","html-keyboard-response","229","174350","0.0-3.0-0.113","","fixation","","",""
"662","Set1/050a.jpg","79","image-keyboard-response","230","175014","0.0-3.0-1.113","","","Repeat","n","false"
"null","<div style=""font-size:60px;"">+</div>","null","html-keyboard-response","231","175518","0.0-3.0-0.114","","fixation","","",""
"878","Set1/068a.jpg","79","image-keyboard-response","232","176398","0.0-3.0-1.114","","","Repeat","n","false"
"null","<div style=""font-size:60px;"">+</div>","null","html-keyboard-response","233","176901","0.0-3.0-0.115","","fixation","","",""
"1224","Set1/130b.jpg","78","image-keyboard-response","234","178128","0.0-3.0-1.115","","","Update","n","true"
"null","<div style=""font-size:60px;"">+</div>","null","html-keyboard-response","235","178631","0.0-3.0-0.116","","fixation","","",""
"790","Set1/046a.jpg","79","image-keyboard-response","236","179423","0.0-3.0-1.116","","","Repeat","o","true"
"null","<div style=""font-size:60px;"">+</div>","null","html-keyboard-response","237","179937","0.0-3.0-0.117","","fixation","","",""
"6461","Set1/073a.jpg","79","image-keyboard-response","238","186398","0.0-3.0-1.117","","","Repeat","n","false"
"null","<div style=""font-size:60px;"">+</div>","null","html-keyboard-response","239","186897","0.0-3.0-0.118","","fixation","","",""
"748","Set1/078a.jpg","79","image-keyboard-response","240","187647","0.0-3.0-1.118","","","Repeat","n","false"
"null","<div style=""font-size:60px;"">+</div>","null","html-keyboard-response","241","188163","0.0-3.0-0.119","","fixation","","",""
"816","Set1/147b.jpg","79","image-keyboard-response","242","188981","0.0-3.0-1.119","","","Update","o","true"
"null","<div style=""font-size:60px;"">+</div>","null","html-keyboard-response","243","189497","0.0-3.0-0.120","","fixation","","",""
"706","Set1/066a.jpg","79","image-keyboard-response","244","190205","0.0-3.0-1.120","","","Repeat","n","false"
"null","<div style=""font-size:60px;"">+</div>","null","html-keyboard-response","245","190710","0.0-3.0-0.121","","fixation","","",""
"671","Set1/106b.jpg","79","image-keyboard-response","246","191385","0.0-3.0-1.121","","","Update","o","true"
"null","<div style=""font-size:60px;"">+</div>","null","html-keyboard-response","247","191895","0.0-3.0-0.122","","fixation","","",""
"820","Set1/112b.jpg","78","image-keyboard-response","248","192717","0.0-3.0-1.122","","","Update","n","true"
"null","<div style=""font-size:60px;"">+</div>","null","html-keyboard-response","249","193228","0.0-3.0-0.123","","fixation","","",""
"763","Set1/185a.jpg","78","image-keyboard-response","250","193991","0.0-3.0-1.123","","","Set_2_Only","n","true"
"null","<div style=""font-size:60px;"">+</div>","null","html-keyboard-response","251","194494","0.0-3.0-0.124","","fixation","","",""
"591","Set1/036a.jpg","79","image-keyboard-response","252","195085","0.0-3.0-1.124","","","Repeat","o","true"
"null","<div style=""font-size:60px;"">+</div>","null","html-keyboard-response","253","195593","0.0-3.0-0.125","","fixation","","",""
"620","Set1/098b.jpg","79","image-keyboard-response","254","196215","0.0-3.0-1.125","","","Update","o","true"
"null","<div style=""font-size:60px;"">+</div>","null","html-keyboard-response","255","196725","0.0-3.0-0.126","","fixation","","",""
"518","Set1/096a.jpg","79","image-keyboard-response","256","197247","0.0-3.0-1.126","","","Repeat","o","true"
"null","<div style=""font-size:60px;"">+</div>","null","html-keyboard-response","257","197761","0.0-3.0-0.127","","fixation","","",""
"731","Set1/185a.jpg","78","image-keyboard-response","258","198496","0.0-3.0-1.127","","","Set_2_Only","o","false"
"null","<div style=""font-size:60px;"">+</div>","null","html-keyboard-response","259","199010","0.0-3.0-0.128","","fixation","","",""
"652","Set1/066a.jpg","79","image-keyboard-response","260","199662","0.0-3.0-1.128","","","Repeat","o","true"
"null","<div style=""font-size:60px;"">+</div>","null","html-keyboard-response","261","200176","0.0-3.0-0.129","","fixation","","",""
"595","Set1/144b.jpg","79","image-keyboard-response","262","200773","0.0-3.0-1.129","","","Update","o","true"
"null","<div style=""font-size:60px;"">+</div>","null","html-keyboard-response","263","201291","0.0-3.0-0.130","","fixation","","",""
"572","Set1/112b.jpg","79","image-keyboard-response","264","201863","0.0-3.0-1.130","","","Update","o","true"
"null","<div style=""font-size:60px;"">+</div>","null","html-keyboard-response","265","202373","0.0-3.0-0.131","","fixation","","",""
"734","Set1/162a.jpg","79","image-keyboard-response","266","203109","0.0-3.0-1.131","","","Set_2_Only","o","true"
"null","<div style=""font-size:60px;"">+</div>","null","html-keyboard-response","267","203622","0.0-3.0-0.132","","fixation","","",""
"503","Set1/176a.jpg","79","image-keyboard-response","268","204127","0.0-3.0-1.132","","","Set_2_Only","o","true"
"null","<div style=""font-size:60px;"">+</div>","null","html-keyboard-response","269","204639","0.0-3.0-0.133","","fixation","","",""
"524","Set1/050a.jpg","79","image-keyboard-response","270","205165","0.0-3.0-1.133","","","Repeat","o","true"
"null","<div style=""font-size:60px;"">+</div>","null","html-keyboard-response","271","205675","0.0-3.0-0.134","","fixation","","",""
"547","Set1/078a.jpg","79","image-keyboard-response","272","206222","0.0-3.0-1.134","","","Repeat","o","true"
"null","<div style=""font-size:60px;"">+</div>","null","html-keyboard-response","273","206737","0.0-3.0-0.135","","fixation","","",""
"1627","Set1/150b.jpg","78","image-keyboard-response","274","208367","0.0-3.0-1.135","","","Update","n","true"
"null","<div style=""font-size:60px;"">+</div>","null","html-keyboard-response","275","208872","0.0-3.0-0.136","","fixation","","",""
"797","Set1/043a.jpg","79","image-keyboard-response","276","209671","0.0-3.0-1.136","","","Repeat","n","false"
"null","<div style=""font-size:60px;"">+</div>","null","html-keyboard-response","277","210186","0.0-3.0-0.137","","fixation","","",""
"862","Set1/100b.jpg","79","image-keyboard-response","278","211048","0.0-3.0-1.137","","","Update","n","false"
"null","<div style=""font-size:60px;"">+</div>","null","html-keyboard-response","279","211553","0.0-3.0-0.138","","fixation","","",""
"594","Set1/042a.jpg","79","image-keyboard-response","280","212150","0.0-3.0-1.138","","","Repeat","o","true"
"null","<div style=""font-size:60px;"">+</div>","null","html-keyboard-response","281","212654","0.0-3.0-0.139","","fixation","","",""
"903","Set1/131b.jpg","78","image-keyboard-response","282","213557","0.0-3.0-1.139","","","Update","n","true"
"null","<div style=""font-size:60px;"">+</div>","null","html-keyboard-response","283","214069","0.0-3.0-0.140","","fixation","","",""
"713","Set1/073a.jpg","79","image-keyboard-response","284","214782","0.0-3.0-1.140","","","Repeat","o","true"
"null","<div style=""font-size:60px;"">+</div>","null","html-keyboard-response","285","215285","0.0-3.0-0.141","","fixation","","",""
"501","Set1/074a.jpg","79","image-keyboard-response","286","215790","0.0-3.0-1.141","","","Repeat","o","true"
"null","<div style=""font-size:60px;"">+</div>","null","html-keyboard-response","287","216304","0.0-3.0-0.142","","fixation","","",""
"564","Set1/034a.jpg","79","image-keyboard-response","288","216870","0.0-3.0-1.142","","","Repeat","o","true"
"null","<div style=""font-size:60px;"">+</div>","null","html-keyboard-response","289","217383","0.0-3.0-0.143","","fixation","","",""
"493","Set1/068a.jpg","79","image-keyboard-response","290","217878","0.0-3.0-1.143","","","Repeat","o","true"
"null","<div style=""font-size:60px;"">+</div>","null","html-keyboard-response","291","218383","0.0-3.0-0.144","","fixation","","",""
"709","Set1/191a.jpg","79","image-keyboard-response","292","219094","0.0-3.0-1.144","","","Set_2_Only","o","true"
"null","<div style=""font-size:60px;"">+</div>","null","html-keyboard-response","293","219599","0.0-3.0-0.145","","fixation","","",""
"508","Set1/131b.jpg","79","image-keyboard-response","294","220109","0.0-3.0-1.145","","","Update","o","true"
"null","<div style=""font-size:60px;"">+</div>","null","html-keyboard-response","295","220614","0.0-3.0-0.146","","fixation","","",""
"576","Set1/043a.jpg","79","image-keyboard-response","296","221190","0.0-3.0-1.146","","","Repeat","o","true"
"null","<div style=""font-size:60px;"">+</div>","null","html-keyboard-response","297","221700","0.0-3.0-0.147","","fixation","","",""
"480","Set1/100b.jpg","79","image-keyboard-response","298","222182","0.0-3.0-1.147","","","Update","o","true"
"null","<div style=""font-size:60px;"">+</div>","null","html-keyboard-response","299","222683","0.0-3.0-0.148","","fixation","","",""
"440","Set1/055a.jpg","79","image-keyboard-response","300","223125","0.0-3.0-1.148","","","Repeat","o","true"
"null","<div style=""font-size:60px;"">+</div>","null","html-keyboard-response","301","223631","0.0-3.0-0.149","","fixation","","",""
"941","Set1/041a.jpg","79","image-keyboard-response","302","224574","0.0-3.0-1.149","","","Repeat","n","false"
"null","<div style=""font-size:60px;"">+</div>","null","html-keyboard-response","303","225079","0.0-3.0-0.150","","fixation","","",""
"589","Set1/069a.jpg","79","image-keyboard-response","304","225670","0.0-3.0-1.150","","","Repeat","o","true"
"null","<div style=""font-size:60px;"">+</div>","null","html-keyboard-response","305","226180","0.0-3.0-0.151","","fixation","","",""
"1256","Set1/061a.jpg","78","image-keyboard-response","306","227438","0.0-3.0-1.151","","","Repeat","n","true"
"null","<div style=""font-size:60px;"">+</div>","null","html-keyboard-response","307","227945","0.0-3.0-0.152","","fixation","","",""
"916","Set1/103b.jpg","79","image-keyboard-response","308","228861","0.0-3.0-1.152","","","Update","o","true"
"null","<div style=""font-size:60px;"">+</div>","null","html-keyboard-response","309","229377","0.0-3.0-0.153","","fixation","","",""
"499","Set1/044a.jpg","79","image-keyboard-response","310","229878","0.0-3.0-1.153","","","Repeat","o","true"
"null","<div style=""font-size:60px;"">+</div>","null","html-keyboard-response","311","230394","0.0-3.0-0.154","","fixation","","",""
"578","Set1/150b.jpg","79","image-keyboard-response","312","230974","0.0-3.0-1.154","","","Update","o","true"
"null","<div style=""font-size:60px;"">+</div>","null","html-keyboard-response","313","231478","0.0-3.0-0.155","","fixation","","",""
"521","Set1/084a.jpg","79","image-keyboard-response","314","231999","0.0-3.0-1.155","","","Repeat","o","true"
"null","<div style=""font-size:60px;"">+</div>","null","html-keyboard-response","315","232513","0.0-3.0-0.156","","fixation","","",""
"763","Set1/130b.jpg","79","image-keyboard-response","316","233278","0.0-3.0-1.156","","","Update","o","true"
"null","<div style=""font-size:60px;"">+</div>","null","html-keyboard-response","317","233794","0.0-3.0-0.157","","fixation","","",""
"571","Set1/143b.jpg","79","image-keyboard-response","318","234367","0.0-3.0-1.157","","","Update","o","true"
"null","<div style=""font-size:60px;"">+</div>","null","html-keyboard-response","319","234878","0.0-3.0-0.158","","fixation","","",""
"465","Set1/061a.jpg","79","image-keyboard-response","320","235343","0.0-3.0-1.158","","","Repeat","o","true"
"null","<div style=""font-size:60px;"">+</div>","null","html-keyboard-response","321","235859","0.0-3.0-0.159","","fixation","","",""
"457","Set1/041a.jpg","79","image-keyboard-response","322","236318","0.0-3.0-1.159","","","Repeat","o","true"
"null","<div style=""font-size:60px;"">+</div>","null","html-keyboard-response","323","236826","0.0-3.0-0.160","","fixation","","",""
"585","Set1/113b.jpg","79","image-keyboard-response","324","237413","0.0-3.0-1.160","","","Update","n","false"
"null","<div style=""font-size:60px;"">+</div>","null","html-keyboard-response","325","237926","0.0-3.0-0.161","","fixation","","",""
"864","Set1/105b.jpg","78","image-keyboard-response","326","238790","0.0-3.0-1.161","","","Update","n","true"
"null","<div style=""font-size:60px;"">+</div>","null","html-keyboard-response","327","239295","0.0-3.0-0.162","","fixation","","",""
"575","Set1/056a.jpg","79","image-keyboard-response","328","239870","0.0-3.0-1.162","","","Repeat","n","false"
"null","<div style=""font-size:60px;"">+</div>","null","html-keyboard-response","329","240375","0.0-3.0-0.163","","fixation","","",""
"484","Set1/070a.jpg","79","image-keyboard-response","330","240861","0.0-3.0-1.163","","","Repeat","n","false"
"null","<div style=""font-size:60px;"">+</div>","null","html-keyboard-response","331","241375","0.0-3.0-0.164","","fixation","","",""
"533","Set1/089a.jpg","79","image-keyboard-response","332","241911","0.0-3.0-1.164","","","Repeat","n","false"
"null","<div style=""font-size:60px;"">+</div>","null","html-keyboard-response","333","242425","0.0-3.0-0.165","","fixation","","",""
"830","Set1/165a.jpg","78","image-keyboard-response","334","243255","0.0-3.0-1.165","","","Set_2_Only","n","true"
"null","<div style=""font-size:60px;"">+</div>","null","html-keyboard-response","335","243756","0.0-3.0-0.166","","fixation","","",""
"994","Set1/065a.jpg","78","image-keyboard-response","336","244750","0.0-3.0-1.166","","","Repeat","n","true"
"null","<div style=""font-size:60px;"">+</div>","null","html-keyboard-response","337","245258","0.0-3.0-0.167","","fixation","","",""
"1659","Set1/104b.jpg","79","image-keyboard-response","338","246918","0.0-3.0-1.167","","","Update","n","false"
"null","<div style=""font-size:60px;"">+</div>","null","html-keyboard-response","339","247423","0.0-3.0-0.168","","fixation","","",""
"528","Set1/065a.jpg","79","image-keyboard-response","340","247951","0.0-3.0-1.168","","","Repeat","o","true"
"null","<div style=""font-size:60px;"">+</div>","null","html-keyboard-response","341","248469","0.0-3.0-0.169","","fixation","","",""
"935","Set1/082a.jpg","79","image-keyboard-response","342","249406","0.0-3.0-1.169","","","Repeat","n","false"
"null","<div style=""font-size:60px;"">+</div>","null","html-keyboard-response","343","249920","0.0-3.0-0.170","","fixation","","",""
"1002","Set1/134b.jpg","78","image-keyboard-response","344","250926","0.0-3.0-1.170","","","Update","n","true"
"null","<div style=""font-size:60px;"">+</div>","null","html-keyboard-response","345","251436","0.0-3.0-0.171","","fixation","","",""
"1192","Set1/158b.jpg","78","image-keyboard-response","346","252630","0.0-3.0-1.171","","","Update","n","true"
"null","<div style=""font-size:60px;"">+</div>","null","html-keyboard-response","347","253136","0.0-3.0-0.172","","fixation","","",""
"780","Set1/057a.jpg","79","image-keyboard-response","348","253918","0.0-3.0-1.172","","","Repeat","n","false"
"null","<div style=""font-size:60px;"">+</div>","null","html-keyboard-response","349","254435","0.0-3.0-0.173","","fixation","","",""
"578","Set1/105b.jpg","79","image-keyboard-response","350","255016","0.0-3.0-1.173","","","Update","o","true"
"null","<div style=""font-size:60px;"">+</div>","null","html-keyboard-response","351","255518","0.0-3.0-0.174","","fixation","","",""
"917","Set1/161a.jpg","78","image-keyboard-response","352","256440","0.0-3.0-1.174","","","Set_2_Only","n","true"
"null","<div style=""font-size:60px;"">+</div>","null","html-keyboard-response","353","256953","0.0-3.0-0.175","","fixation","","",""
"1492","Set1/101b.jpg","79","image-keyboard-response","354","258446","0.0-3.0-1.175","","","Update","n","false"
"null","<div style=""font-size:60px;"">+</div>","null","html-keyboard-response","355","258949","0.0-3.0-0.176","","fixation","","",""
"577","Set1/089a.jpg","79","image-keyboard-response","356","259526","0.0-3.0-1.176","","","Repeat","o","true"
"null","<div style=""font-size:60px;"">+</div>","null","html-keyboard-response","357","260033","0.0-3.0-0.177","","fixation","","",""
"581","Set1/101b.jpg","79","image-keyboard-response","358","260614","0.0-3.0-1.177","","","Update","o","true"
"null","<div style=""font-size:60px;"">+</div>","null","html-keyboard-response","359","261130","0.0-3.0-0.178","","fixation","","",""
"666","Set1/134b.jpg","79","image-keyboard-response","360","261798","0.0-3.0-1.178","","","Update","o","true"
"null","<div style=""font-size:60px;"">+</div>","null","html-keyboard-response","361","262314","0.0-3.0-0.179","","fixation","","",""
"499","Set1/161a.jpg","79","image-keyboard-response","362","262815","0.0-3.0-1.179","","","Set_2_Only","o","true"
"null","<div style=""font-size:60px;"">+</div>","null","html-keyboard-response","363","263329","0.0-3.0-0.180","","fixation","","",""
"1459","Set1/116b.jpg","79","image-keyboard-response","364","264790","0.0-3.0-1.180","","","Update","n","false"
"null","<div style=""font-size:60px;"">+</div>","null","html-keyboard-response","365","265301","0.0-3.0-0.181","","fixation","","",""
"734","Set1/152b.jpg","79","image-keyboard-response","366","266039","0.0-3.0-1.181","","","Update","n","false"
"null","<div style=""font-size:60px;"">+</div>","null","html-keyboard-response","367","266547","0.0-3.0-0.182","","fixation","","",""
"799","Set1/045a.jpg","79","image-keyboard-response","368","267350","0.0-3.0-1.182","","","Repeat","n","false"
"null","<div style=""font-size:60px;"">+</div>","null","html-keyboard-response","369","267863","0.0-3.0-0.183","","fixation","","",""
"1118","Set1/183a.jpg","78","image-keyboard-response","370","268983","0.0-3.0-1.183","","","Set_2_Only","n","true"
"null","<div style=""font-size:60px;"">+</div>","null","html-keyboard-response","371","269496","0.0-3.0-0.184","","fixation","","",""
"843","Set1/053a.jpg","79","image-keyboard-response","372","270343","0.0-3.0-1.184","","","Repeat","n","false"
"null","<div style=""font-size:60px;"">+</div>","null","html-keyboard-response","373","270859","0.0-3.0-0.185","","fixation","","",""
"891","Set1/182a.jpg","78","image-keyboard-response","374","271750","0.0-3.0-1.185","","","Set_2_Only","n","true"
"null","<div style=""font-size:60px;"">+</div>","null","html-keyboard-response","375","272262","0.0-3.0-0.186","","fixation","","",""
"1501","Set1/124b.jpg","78","image-keyboard-response","376","273765","0.0-3.0-1.186","","","Update","n","true"
"null","<div style=""font-size:60px;"">+</div>","null","html-keyboard-response","377","274279","0.0-3.0-0.187","","fixation","","",""
"1142","Set1/155b.jpg","78","image-keyboard-response","378","275423","0.0-3.0-1.187","","","Update","n","true"
"null","<div style=""font-size:60px;"">+</div>","null","html-keyboard-response","379","275926","0.0-3.0-0.188","","fixation","","",""
"671","Set1/104b.jpg","79","image-keyboard-response","380","276597","0.0-3.0-1.188","","","Update","o","true"
"null","<div style=""font-size:60px;"">+</div>","null","html-keyboard-response","381","277109","0.0-3.0-0.189","","fixation","","",""
"727","Set1/052a.jpg","79","image-keyboard-response","382","277838","0.0-3.0-1.189","","","Repeat","n","false"
"null","<div style=""font-size:60px;"">+</div>","null","html-keyboard-response","383","278341","0.0-3.0-0.190","","fixation","","",""
"870","Set1/158b.jpg","79","image-keyboard-response","384","279215","0.0-3.0-1.190","","","Update","o","true"
"null","<div style=""font-size:60px;"">+</div>","null","html-keyboard-response","385","279725","0.0-3.0-0.191","","fixation","","",""
"879","Set1/184a.jpg","78","image-keyboard-response","386","280606","0.0-3.0-1.191","","","Set_2_Only","n","true"
"null","<div style=""font-size:60px;"">+</div>","null","html-keyboard-response","387","281108","0.0-3.0-0.192","","fixation","","",""
"704","Set1/052a.jpg","79","image-keyboard-response","388","281815","0.0-3.0-1.192","","","Repeat","o","true"
"null","<div style=""font-size:60px;"">+</div>","null","html-keyboard-response","389","282327","0.0-3.0-0.193","","fixation","","",""
"855","Set1/192a.jpg","78","image-keyboard-response","390","283182","0.0-3.0-1.193","","","Set_2_Only","n","true"
"null","<div style=""font-size:60px;"">+</div>","null","html-keyboard-response","391","283691","0.0-3.0-0.194","","fixation","","",""
"714","Set1/155b.jpg","79","image-keyboard-response","392","284406","0.0-3.0-1.194","","","Update","o","true"
"null","<div style=""font-size:60px;"">+</div>","null","html-keyboard-response","393","284922","0.0-3.0-0.195","","fixation","","",""
"520","Set1/070a.jpg","79","image-keyboard-response","394","285446","0.0-3.0-1.195","","","Repeat","o","true"
"null","<div style=""font-size:60px;"">+</div>","null","html-keyboard-response","395","285958","0.0-3.0-0.196","","fixation","","",""
"748","Set1/048a.jpg","79","image-keyboard-response","396","286708","0.0-3.0-1.196","","","Repeat","n","false"
"null","<div style=""font-size:60px;"">+</div>","null","html-keyboard-response","397","287224","0.0-3.0-0.197","","fixation","","",""
"1067","Set1/122b.jpg","78","image-keyboard-response","398","288295","0.0-3.0-1.197","","","Update","n","true"
"null","<div style=""font-size:60px;"">+</div>","null","html-keyboard-response","399","288804","0.0-3.0-0.198","","fixation","","",""
"777","Set1/156b.jpg","79","image-keyboard-response","400","289582","0.0-3.0-1.198","","","Update","n","false"
"null","<div style=""font-size:60px;"">+</div>","null","html-keyboard-response","401","290087","0.0-3.0-0.199","","fixation","","",""
"796","Set1/097b.jpg","79","image-keyboard-response","402","290886","0.0-3.0-1.199","","","Update","n","false"
"null","<div style=""font-size:60px;"">+</div>","null","html-keyboard-response","403","291402","0.0-3.0-0.200","","fixation","","",""
"964","Set1/118b.jpg","78","image-keyboard-response","404","292366","0.0-3.0-1.200","","","Update","n","true"
"null","<div style=""font-size:60px;"">+</div>","null","html-keyboard-response","405","292867","0.0-3.0-0.201","","fixation","","",""
"743","Set1/183a.jpg","79","image-keyboard-response","406","293614","0.0-3.0-1.201","","","Set_2_Only","o","true"
"null","<div style=""font-size:60px;"">+</div>","null","html-keyboard-response","407","294117","0.0-3.0-0.202","","fixation","","",""
"889","Set1/107b.jpg","78","image-keyboard-response","408","295008","0.0-3.0-1.202","","","Update","n","true"
"null","<div style=""font-size:60px;"">+</div>","null","html-keyboard-response","409","295520","0.0-3.0-0.203","","fixation","","",""
"541","Set1/048a.jpg","79","image-keyboard-response","410","296062","0.0-3.0-1.203","","","Repeat","o","true"
"null","<div style=""font-size:60px;"">+</div>","null","html-keyboard-response","411","296566","0.0-3.0-0.204","","fixation","","",""
"614","Set1/116b.jpg","79","image-keyboard-response","412","297182","0.0-3.0-1.204","","","Update","o","true"
"null","<div style=""font-size:60px;"">+</div>","null","html-keyboard-response","413","297685","0.0-3.0-0.205","","fixation","","",""
"912","Set1/174a.jpg","78","image-keyboard-response","414","298597","0.0-3.0-1.205","","","Set_2_Only","n","true"
"null","<div style=""font-size:60px;"">+</div>","null","html-keyboard-response","415","299115","0.0-3.0-0.206","","fixation","","",""
"979","Set1/190a.jpg","78","image-keyboard-response","416","300094","0.0-3.0-1.206","","","Set_2_Only","n","true"
"null","<div style=""font-size:60px;"">+</div>","null","html-keyboard-response","417","300599","0.0-3.0-0.207","","fixation","","",""
"616","Set1/056a.jpg","79","image-keyboard-response","418","301217","0.0-3.0-1.207","","","Repeat","o","true"
"null","<div style=""font-size:60px;"">+</div>","null","html-keyboard-response","419","301731","0.0-3.0-0.208","","fixation","","",""
"776","Set1/085a.jpg","79","image-keyboard-response","420","302511","0.0-3.0-1.208","","","Repeat","n","false"
"null","<div style=""font-size:60px;"">+</div>","null","html-keyboard-response","421","303016","0.0-3.0-0.209","","fixation","","",""
"779","Set1/182a.jpg","79","image-keyboard-response","422","303798","0.0-3.0-1.209","","","Set_2_Only","o","true"
"null","<div style=""font-size:60px;"">+</div>","null","html-keyboard-response","423","304314","0.0-3.0-0.210","","fixation","","",""
"1080","Set1/163a.jpg","78","image-keyboard-response","424","305398","0.0-3.0-1.210","","","Set_2_Only","n","true"
"null","<div style=""font-size:60px;"">+</div>","null","html-keyboard-response","425","305914","0.0-3.0-0.211","","fixation","","",""
"897","Set1/189a.jpg","78","image-keyboard-response","426","306815","0.0-3.0-1.211","","","Set_2_Only","n","true"
"null","<div style=""font-size:60px;"">+</div>","null","html-keyboard-response","427","307327","0.0-3.0-0.212","","fixation","","",""
"580","Set1/097b.jpg","79","image-keyboard-response","428","307910","0.0-3.0-1.212","","","Update","o","true"
"null","<div style=""font-size:60px;"">+</div>","null","html-keyboard-response","429","308413","0.0-3.0-0.213","","fixation","","",""
"937","Set1/113b.jpg","79","image-keyboard-response","430","309352","0.0-3.0-1.213","","","Update","o","true"
"null","<div style=""font-size:60px;"">+</div>","null","html-keyboard-response","431","309863","0.0-3.0-0.214","","fixation","","",""
"671","Set1/174a.jpg","79","image-keyboard-response","432","310534","0.0-3.0-1.214","","","Set_2_Only","o","true"
"null","<div style=""font-size:60px;"">+</div>","null","html-keyboard-response","433","311046","0.0-3.0-0.215","","fixation","","",""
"998","Set1/115b.jpg","79","image-keyboard-response","434","312048","0.0-3.0-1.215","","","Update","n","false"
"null","<div style=""font-size:60px;"">+</div>","null","html-keyboard-response","435","312562","0.0-3.0-0.216","","fixation","","",""
"1096","Set1/124b.jpg","79","image-keyboard-response","436","313660","0.0-3.0-1.216","","","Update","o","true"
"null","<div style=""font-size:60px;"">+</div>","null","html-keyboard-response","437","314178","0.0-3.0-0.217","","fixation","","",""
"983","Set1/186a.jpg","78","image-keyboard-response","438","315163","0.0-3.0-1.217","","","Set_2_Only","n","true"
"null","<div style=""font-size:60px;"">+</div>","null","html-keyboard-response","439","315677","0.0-3.0-0.218","","fixation","","",""
"943","Set1/169a.jpg","78","image-keyboard-response","440","316622","0.0-3.0-1.218","","","Set_2_Only","n","true"
"null","<div style=""font-size:60px;"">+</div>","null","html-keyboard-response","441","317125","0.0-3.0-0.219","","fixation","","",""
"925","Set1/192a.jpg","79","image-keyboard-response","442","318054","0.0-3.0-1.219","","","Set_2_Only","o","true"
"null","<div style=""font-size:60px;"">+</div>","null","html-keyboard-response","443","318557","0.0-3.0-0.220","","fixation","","",""
"694","Set1/163a.jpg","79","image-keyboard-response","444","319253","0.0-3.0-1.220","","","Set_2_Only","o","true"
"null","<div style=""font-size:60px;"">+</div>","null","html-keyboard-response","445","319756","0.0-3.0-0.221","","fixation","","",""
"1655","Set1/118b.jpg","79","image-keyboard-response","446","321413","0.0-3.0-1.221","","","Update","o","true"
"null","<div style=""font-size:60px;"">+</div>","null","html-keyboard-response","447","321924","0.0-3.0-0.222","","fixation","","",""
"2009","Set1/107b.jpg","79","image-keyboard-response","448","323935","0.0-3.0-1.222","","","Update","o","true"
"null","<div style=""font-size:60px;"">+</div>","null","html-keyboard-response","449","324442","0.0-3.0-0.223","","fixation","","",""
"2379","Set1/062a.jpg","79","image-keyboard-response","450","326821","0.0-3.0-1.223","","","Repeat","n","false"
"null","<div style=""font-size:60px;"">+</div>","null","html-keyboard-response","451","327339","0.0-3.0-0.224","","fixation","","",""
"2040","Set1/156b.jpg","79","image-keyboard-response","452","329383","0.0-3.0-1.224","","","Update","o","true"
"null","<div style=""font-size:60px;"">+</div>","null","html-keyboard-response","453","329889","0.0-3.0-0.225","","fixation","","",""
"1051","Set1/186a.jpg","79","image-keyboard-response","454","330941","0.0-3.0-1.225","","","Set_2_Only","o","true"
"null","<div style=""font-size:60px;"">+</div>","null","html-keyboard-response","455","331455","0.0-3.0-0.226","","fixation","","",""
"597","Set1/045a.jpg","79","image-keyboard-response","456","332054","0.0-3.0-1.226","","","Repeat","o","true"
"null","<div style=""font-size:60px;"">+</div>","null","html-keyboard-response","457","332568","0.0-3.0-0.227","","fixation","","",""
"530","Set1/057a.jpg","79","image-keyboard-response","458","333102","0.0-3.0-1.227","","","Repeat","o","true"
"null","<div style=""font-size:60px;"">+</div>","null","html-keyboard-response","459","333616","0.0-3.0-0.228","","fixation","","",""
"436","Set1/184a.jpg","79","image-keyboard-response","460","334054","0.0-3.0-1.228","","","Set_2_Only","o","true"
"null","<div style=""font-size:60px;"">+</div>","null","html-keyboard-response","461","334568","0.0-3.0-0.229","","fixation","","",""
"526","Set1/165a.jpg","79","image-keyboard-response","462","335094","0.0-3.0-1.229","","","Set_2_Only","o","true"
"null","<div style=""font-size:60px;"">+</div>","null","html-keyboard-response","463","335601","0.0-3.0-0.230","","fixation","","",""
"445","Set1/062a.jpg","79","image-keyboard-response","464","336046","0.0-3.0-1.230","","","Repeat","o","true"
"null","<div style=""font-size:60px;"">+</div>","null","html-keyboard-response","465","336549","0.0-3.0-0.231","","fixation","","",""
"537","Set1/152b.jpg","79","image-keyboard-response","466","337087","0.0-3.0-1.231","","","Update","o","true"
"null","<div style=""font-size:60px;"">+</div>","null","html-keyboard-response","467","337601","0.0-3.0-0.232","","fixation","","",""
"510","Set1/053a.jpg","79","image-keyboard-response","468","338111","0.0-3.0-1.232","","","Repeat","o","true"
"null","<div style=""font-size:60px;"">+</div>","null","html-keyboard-response","469","338614","0.0-3.0-0.233","","fixation","","",""
"878","Set1/190a.jpg","79","image-keyboard-response","470","339494","0.0-3.0-1.233","","","Set_2_Only","o","true"
"null","<div style=""font-size:60px;"">+</div>","null","html-keyboard-response","471","339998","0.0-3.0-0.234","","fixation","","",""
"564","Set1/082a.jpg","79","image-keyboard-response","472","340565","0.0-3.0-1.234","","","Repeat","o","true"
"null","<div style=""font-size:60px;"">+</div>","null","html-keyboard-response","473","341081","0.0-3.0-0.235","","fixation","","",""
"453","Set1/085a.jpg","79","image-keyboard-response","474","341536","0.0-3.0-1.235","","","Repeat","o","true"
"null","<div style=""font-size:60px;"">+</div>","null","html-keyboard-response","475","342048","0.0-3.0-0.236","","fixation","","",""
"442","Set1/169a.jpg","79","image-keyboard-response","476","342492","0.0-3.0-1.236","","","Set_2_Only","o","true"
"null","<div style=""font-size:60px;"">+</div>","null","html-keyboard-response","477","342997","0.0-3.0-0.237","","fixation","","",""
"446","Set1/122b.jpg","79","image-keyboard-response","478","343446","0.0-3.0-1.237","","","Update","o","true"
"null","<div style=""font-size:60px;"">+</div>","null","html-keyboard-response","479","343962","0.0-3.0-0.238","","fixation","","",""
"545","Set1/189a.jpg","79","image-keyboard-response","480","344509","0.0-3.0-1.238","","","Set_2_Only","o","true"
"null","<div style=""font-size:60px;"">+</div>","null","html-keyboard-response","481","345014","0.0-3.0-0.239","","fixation","","",""
"487","Set1/115b.jpg","79","image-keyboard-response","482","345501","0.0-3.0-1.239","","","Update","o","true"
"null","<div style=""font-size:60px;"">+</div>","null","html-keyboard-response","483","346014","0.0-3.0-0.240","","fixation","","",""
"550","Set1/081a.jpg","79","image-keyboard-response","484","346566","0.0-3.0-1.240","","","Repeat","n","false"
"null","<div style=""font-size:60px;"">+</div>","null","html-keyboard-response","485","347079","0.0-3.0-0.241","","fixation","","",""
"839","Set1/166a.jpg","78","image-keyboard-response","486","347918","0.0-3.0-1.241","","","Set_2_Only","n","true"
"null","<div style=""font-size:60px;"">+</div>","null","html-keyboard-response","487","348429","0.0-3.0-0.242","","fixation","","",""
"862","Set1/111b.jpg","79","image-keyboard-response","488","349295","0.0-3.0-1.242","","","Update","n","false"
"null","<div style=""font-size:60px;"">+</div>","null","html-keyboard-response","489","349796","0.0-3.0-0.243","","fixation","","",""
"751","Set1/063a.jpg","79","image-keyboard-response","490","350551","0.0-3.0-1.243","","","Repeat","n","false"
"null","<div style=""font-size:60px;"">+</div>","null","html-keyboard-response","491","351063","0.0-3.0-0.244","","fixation","","",""
"861","Set1/127b.jpg","79","image-keyboard-response","492","351926","0.0-3.0-1.244","","","Update","n","false"
"null","<div style=""font-size:60px;"">+</div>","null","html-keyboard-response","493","352442","0.0-3.0-0.245","","fixation","","",""
"786","Set1/077a.jpg","79","image-keyboard-response","494","353230","0.0-3.0-1.245","","","Repeat","n","false"
"null","<div style=""font-size:60px;"">+</div>","null","html-keyboard-response","495","353746","0.0-3.0-0.246","","fixation","","",""
"648","Set1/117b.jpg","79","image-keyboard-response","496","354396","0.0-3.0-1.246","","","Update","n","false"
"null","<div style=""font-size:60px;"">+</div>","null","html-keyboard-response","497","354910","0.0-3.0-0.247","","fixation","","",""
"901","Set1/110b.jpg","78","image-keyboard-response","498","355813","0.0-3.0-1.247","","","Update","n","true"
"null","<div style=""font-size:60px;"">+</div>","null","html-keyboard-response","499","356327","0.0-3.0-0.248","","fixation","","",""
"694","Set1/137b.jpg","79","image-keyboard-response","500","357023","0.0-3.0-1.248","","","Update","n","false"
"null","<div style=""font-size:60px;"">+</div>","null","html-keyboard-response","501","357542","0.0-3.0-0.249","","fixation","","",""
"683","Set1/146b.jpg","79","image-keyboard-response","502","358230","0.0-3.0-1.249","","","Update","n","false"
"null","<div style=""font-size:60px;"">+</div>","null","html-keyboard-response","503","358744","0.0-3.0-0.250","","fixation","","",""
"937","Set1/164a.jpg","78","image-keyboard-response","504","359681","0.0-3.0-1.250","","","Set_2_Only","n","true"
"null","<div style=""font-size:60px;"">+</div>","null","html-keyboard-response","505","360192","0.0-3.0-0.251","","fixation","","",""
"781","Set1/132b.jpg","79","image-keyboard-response","506","360975","0.0-3.0-1.251","","","Update","n","false"
"null","<div style=""font-size:60px;"">+</div>","null","html-keyboard-response","507","361490","0.0-3.0-0.252","","fixation","","",""
"994","Set1/136b.jpg","79","image-keyboard-response","508","362486","0.0-3.0-1.252","","","Update","n","false"
"null","<div style=""font-size:60px;"">+</div>","null","html-keyboard-response","509","362989","0.0-3.0-0.253","","fixation","","",""
"1944","Set1/072a.jpg","78","image-keyboard-response","510","364935","0.0-3.0-1.253","","","Repeat","n","true"
"null","<div style=""font-size:60px;"">+</div>","null","html-keyboard-response","511","365453","0.0-3.0-0.254","","fixation","","",""
"775","Set1/049a.jpg","79","image-keyboard-response","512","366230","0.0-3.0-1.254","","","Repeat","n","false"
"null","<div style=""font-size:60px;"">+</div>","null","html-keyboard-response","513","366738","0.0-3.0-0.255","","fixation","","",""
"795","Set1/133b.jpg","79","image-keyboard-response","514","367534","0.0-3.0-1.255","","","Update","n","false"
"null","<div style=""font-size:60px;"">+</div>","null","html-keyboard-response","515","368040","0.0-3.0-0.256","","fixation","","",""
"1077","Set1/109b.jpg","79","image-keyboard-response","516","369119","0.0-3.0-1.256","","","Update","n","false"
"null","<div style=""font-size:60px;"">+</div>","null","html-keyboard-response","517","369639","0.0-3.0-0.257","","fixation","","",""
"1141","Set1/121b.jpg","78","image-keyboard-response","518","370783","0.0-3.0-1.257","","","Update","n","true"
"null","<div style=""font-size:60px;"">+</div>","null","html-keyboard-response","519","371301","0.0-3.0-0.258","","fixation","","",""
"758","Set1/111b.jpg","79","image-keyboard-response","520","372063","0.0-3.0-1.258","","","Update","o","true"
"null","<div style=""font-size:60px;"">+</div>","null","html-keyboard-response","521","372568","0.0-3.0-0.259","","fixation","","",""
"908","Set1/129b.jpg","78","image-keyboard-response","522","373478","0.0-3.0-1.259","","","Update","n","true"
"null","<div style=""font-size:60px;"">+</div>","null","html-keyboard-response","523","373983","0.0-3.0-0.260","","fixation","","",""
"1300","Set1/088a.jpg","79","image-keyboard-response","524","375287","0.0-3.0-1.260","","","Repeat","n","false"
"null","<div style=""font-size:60px;"">+</div>","null","html-keyboard-response","525","375800","0.0-3.0-0.261","","fixation","","",""
"611","Set1/136b.jpg","79","image-keyboard-response","526","376413","0.0-3.0-1.261","","","Update","o","true"
"null","<div style=""font-size:60px;"">+</div>","null","html-keyboard-response","527","376918","0.0-3.0-0.262","","fixation","","",""
"501","Set1/088a.jpg","79","image-keyboard-response","528","377421","0.0-3.0-1.262","","","Repeat","o","true"
"null","<div style=""font-size:60px;"">+</div>","null","html-keyboard-response","529","377933","0.0-3.0-0.263","","fixation","","",""
"2255","Set1/125b.jpg","78","image-keyboard-response","530","380190","0.0-3.0-1.263","","","Update","n","true"
"null","<div style=""font-size:60px;"">+</div>","null","html-keyboard-response","531","380700","0.0-3.0-0.264","","fixation","","",""
"1130","Set1/054a.jpg","79","image-keyboard-response","532","381830","0.0-3.0-1.264","","","Repeat","n","false"
"null","<div style=""font-size:60px;"">+</div>","null","html-keyboard-response","533","382345","0.0-3.0-0.265","","fixation","","",""
"756","Set1/099b.jpg","79","image-keyboard-response","534","383104","0.0-3.0-1.265","","","Update","n","false"
"null","<div style=""font-size:60px;"">+</div>","null","html-keyboard-response","535","383614","0.0-3.0-0.266","","fixation","","",""
"669","Set1/166a.jpg","78","image-keyboard-response","536","384285","0.0-3.0-1.266","","","Set_2_Only","o","false"
"null","<div style=""font-size:60px;"">+</div>","null","html-keyboard-response","537","384800","0.0-3.0-0.267","","fixation","","",""
"1557","Set1/093a.jpg","78","image-keyboard-response","538","386358","0.0-3.0-1.267","","","Repeat","n","true"
"null","<div style=""font-size:60px;"">+</div>","null","html-keyboard-response","539","386863","0.0-3.0-0.268","","fixation","","",""
"870","Set1/060a.jpg","79","image-keyboard-response","540","387733","0.0-3.0-1.268","","","Repeat","n","false"
"null","<div style=""font-size:60px;"">+</div>","null","html-keyboard-response","541","388247","0.0-3.0-0.269","","fixation","","",""
"566","Set1/110b.jpg","79","image-keyboard-response","542","388815","0.0-3.0-1.269","","","Update","o","true"
"null","<div style=""font-size:60px;"">+</div>","null","html-keyboard-response","543","389329","0.0-3.0-0.270","","fixation","","",""
"572","Set1/093a.jpg","79","image-keyboard-response","544","389903","0.0-3.0-1.270","","","Repeat","o","true"
"null","<div style=""font-size:60px;"">+</div>","null","html-keyboard-response","545","390412","0.0-3.0-0.271","","fixation","","",""
"543","Set1/180a.jpg","79","image-keyboard-response","546","390958","0.0-3.0-1.271","","","Set_2_Only","n","false"
"null","<div style=""font-size:60px;"">+</div>","null","html-keyboard-response","547","391477","0.0-3.0-0.272","","fixation","","",""
"895","Set1/120b.jpg","79","image-keyboard-response","548","392373","0.0-3.0-1.272","","","Update","n","false"
"null","<div style=""font-size:60px;"">+</div>","null","html-keyboard-response","549","392876","0.0-3.0-0.273","","fixation","","",""
"822","Set1/178a.jpg","78","image-keyboard-response","550","393702","0.0-3.0-1.273","","","Set_2_Only","n","true"
"null","<div style=""font-size:60px;"">+</div>","null","html-keyboard-response","551","394209","0.0-3.0-0.274","","fixation","","",""
"908","Set1/079a.jpg","79","image-keyboard-response","552","395119","0.0-3.0-1.274","","","Repeat","n","false"
"null","<div style=""font-size:60px;"">+</div>","null","html-keyboard-response","553","395624","0.0-3.0-0.275","","fixation","","",""
"2410","Set1/151b.jpg","78","image-keyboard-response","554","398037","0.0-3.0-1.275","","","Update","n","true"
"null","<div style=""font-size:60px;"">+</div>","null","html-keyboard-response","555","398555","0.0-3.0-0.276","","fixation","","",""
"1000","Set1/181a.jpg","78","image-keyboard-response","556","399559","0.0-3.0-1.276","","","Set_2_Only","n","true"
"null","<div style=""font-size:60px;"">+</div>","null","html-keyboard-response","557","400075","0.0-3.0-0.277","","fixation","","",""
"625","Set1/099b.jpg","79","image-keyboard-response","558","400702","0.0-3.0-1.277","","","Update","o","true"
"null","<div style=""font-size:60px;"">+</div>","null","html-keyboard-response","559","401205","0.0-3.0-0.278","","fixation","","",""
"664","Set1/102b.jpg","79","image-keyboard-response","560","401870","0.0-3.0-1.278","","","Update","n","false"
"null","<div style=""font-size:60px;"">+</div>","null","html-keyboard-response","561","402375","0.0-3.0-0.279","","fixation","","",""
"807","Set1/167a.jpg","78","image-keyboard-response","562","403182","0.0-3.0-1.279","","","Set_2_Only","n","true"
"null","<div style=""font-size:60px;"">+</div>","null","html-keyboard-response","563","403689","0.0-3.0-0.280","","fixation","","",""
"547","Set1/102b.jpg","79","image-keyboard-response","564","404239","0.0-3.0-1.280","","","Update","o","true"
"null","<div style=""font-size:60px;"">+</div>","null","html-keyboard-response","565","404754","0.0-3.0-0.281","","fixation","","",""
"784","Set1/092a.jpg","79","image-keyboard-response","566","405542","0.0-3.0-1.281","","","Repeat","n","false"
"null","<div style=""font-size:60px;"">+</div>","null","html-keyboard-response","567","406054","0.0-3.0-0.282","","fixation","","",""
"503","Set1/081a.jpg","79","image-keyboard-response","568","406559","0.0-3.0-1.282","","","Repeat","o","true"
"null","<div style=""font-size:60px;"">+</div>","null","html-keyboard-response","569","407069","0.0-3.0-0.283","","fixation","","",""
"560","Set1/120b.jpg","79","image-keyboard-response","570","407631","0.0-3.0-1.283","","","Update","o","true"
"null","<div style=""font-size:60px;"">+</div>","null","html-keyboard-response","571","408138","0.0-3.0-0.284","","fixation","","",""
"673","Set1/076a.jpg","79","image-keyboard-response","572","408813","0.0-3.0-1.284","","","Repeat","n","false"
"null","<div style=""font-size:60px;"">+</div>","null","html-keyboard-response","573","409318","0.0-3.0-0.285","","fixation","","",""
"652","Set1/033a.jpg","79","image-keyboard-response","574","409974","0.0-3.0-1.285","","","Repeat","n","false"
"null","<div style=""font-size:60px;"">+</div>","null","html-keyboard-response","575","410486","0.0-3.0-0.286","","fixation","","",""
"629","Set1/125b.jpg","79","image-keyboard-response","576","411119","0.0-3.0-1.286","","","Update","o","true"
"null","<div style=""font-size:60px;"">+</div>","null","html-keyboard-response","577","411618","0.0-3.0-0.287","","fixation","","",""
"465","Set1/127b.jpg","79","image-keyboard-response","578","412086","0.0-3.0-1.287","","","Update","o","true"
"null","<div style=""font-size:60px;"">+</div>","null","html-keyboard-response","579","412605","0.0-3.0-0.288","","fixation","","",""
"448","Set1/092a.jpg","79","image-keyboard-response","580","413054","0.0-3.0-1.288","","","Repeat","o","true"
"null","<div style=""font-size:60px;"">+</div>","null","html-keyboard-response","581","413570","0.0-3.0-0.289","","fixation","","",""
"497","Set1/181a.jpg","79","image-keyboard-response","582","414069","0.0-3.0-1.289","","","Set_2_Only","o","true"
"null","<div style=""font-size:60px;"">+</div>","null","html-keyboard-response","583","414584","0.0-3.0-0.290","","fixation","","",""
"2205","Set1/086a.jpg","78","image-keyboard-response","584","416790","0.0-3.0-1.290","","","Repeat","n","true"
"null","<div style=""font-size:60px;"">+</div>","null","html-keyboard-response","585","417299","0.0-3.0-0.291","","fixation","","",""
"568","Set1/109b.jpg","79","image-keyboard-response","586","417872","0.0-3.0-1.291","","","Update","o","true"
"null","<div style=""font-size:60px;"">+</div>","null","html-keyboard-response","587","418383","0.0-3.0-0.292","","fixation","","",""
"789","Set1/167a.jpg","79","image-keyboard-response","588","419174","0.0-3.0-1.292","","","Set_2_Only","o","true"
"null","<div style=""font-size:60px;"">+</div>","null","html-keyboard-response","589","419681","0.0-3.0-0.293","","fixation","","",""
"675","Set1/129b.jpg","79","image-keyboard-response","590","420358","0.0-3.0-1.293","","","Update","o","true"
"null","<div style=""font-size:60px;"">+</div>","null","html-keyboard-response","591","420865","0.0-3.0-0.294","","fixation","","",""
"532","Set1/180a.jpg","79","image-keyboard-response","592","421398","0.0-3.0-1.294","","","Set_2_Only","o","true"
"null","<div style=""font-size:60px;"">+</div>","null","html-keyboard-response","593","421914","0.0-3.0-0.295","","fixation","","",""
"490","Set1/121b.jpg","79","image-keyboard-response","594","422408","0.0-3.0-1.295","","","Update","o","true"
"null","<div style=""font-size:60px;"">+</div>","null","html-keyboard-response","595","422914","0.0-3.0-0.296","","fixation","","",""
"427","Set1/178a.jpg","79","image-keyboard-response","596","423343","0.0-3.0-1.296","","","Set_2_Only","o","true"
"null","<div style=""font-size:60px;"">+</div>","null","html-keyboard-response","597","423847","0.0-3.0-0.297","","fixation","","",""
"1269","Set1/094a.jpg","78","image-keyboard-response","598","425117","0.0-3.0-1.297","","","Repeat","n","true"
"null","<div style=""font-size:60px;"">+</div>","null","html-keyboard-response","599","425631","0.0-3.0-0.298","","fixation","","",""
"496","Set1/137b.jpg","79","image-keyboard-response","600","426130","0.0-3.0-1.298","","","Update","o","true"
"null","<div style=""font-size:60px;"">+</div>","null","html-keyboard-response","601","426645","0.0-3.0-0.299","","fixation","","",""
"512","Set1/060a.jpg","79","image-keyboard-response","602","427159","0.0-3.0-1.299","","","Repeat","o","true"
"null","<div style=""font-size:60px;"">+</div>","null","html-keyboard-response","603","427679","0.0-3.0-0.300","","fixation","","",""
"557","Set1/133b.jpg","79","image-keyboard-response","604","428238","0.0-3.0-1.300","","","Update","o","true"
"null","<div style=""font-size:60px;"">+</div>","null","html-keyboard-response","605","428746","0.0-3.0-0.301","","fixation","","",""
"505","Set1/164a.jpg","79","image-keyboard-response","606","429253","0.0-3.0-1.301","","","Set_2_Only","o","true"
"null","<div style=""font-size:60px;"">+</div>","null","html-keyboard-response","607","429765","0.0-3.0-0.302","","fixation","","",""
"465","Set1/054a.jpg","79","image-keyboard-response","608","430230","0.0-3.0-1.302","","","Repeat","o","true"
"null","<div style=""font-size:60px;"">+</div>","null","html-keyboard-response","609","430746","0.0-3.0-0.303","","fixation","","",""
"773","Set1/117b.jpg","79","image-keyboard-response","610","431521","0.0-3.0-1.303","","","Update","o","true"
"null","<div style=""font-size:60px;"">+</div>","null","html-keyboard-response","611","432029","0.0-3.0-0.304","","fixation","","",""
"432","Set1/049a.jpg","79","image-keyboard-response","612","432463","0.0-3.0-1.304","","","Repeat","o","true"
"null","<div style=""font-size:60px;"">+</div>","null","html-keyboard-response","613","432977","0.0-3.0-0.305","","fixation","","",""
"556","Set1/132b.jpg","79","image-keyboard-response","614","433534","0.0-3.0-1.305","","","Update","o","true"
"null","<div style=""font-size:60px;"">+</div>","null","html-keyboard-response","615","434044","0.0-3.0-0.306","","fixation","","",""
"580","Set1/151b.jpg","79","image-keyboard-response","616","434627","0.0-3.0-1.306","","","Update","o","true"
"null","<div style=""font-size:60px;"">+</div>","null","html-keyboard-response","617","435142","0.0-3.0-0.307","","fixation","","",""
"533","Set1/086a.jpg","79","image-keyboard-response","618","435679","0.0-3.0-1.307","","","Repeat","o","true"
"null","<div style=""font-size:60px;"">+</div>","null","html-keyboard-response","619","436193","0.0-3.0-0.308","","fixation","","",""
"754","Set1/160b.jpg","78","image-keyboard-response","620","436949","0.0-3.0-1.308","","","Update","n","true"
"null","<div style=""font-size:60px;"">+</div>","null","html-keyboard-response","621","437457","0.0-3.0-0.309","","fixation","","",""
"779","Set1/094a.jpg","79","image-keyboard-response","622","438238","0.0-3.0-1.309","","","Repeat","o","true"
"null","<div style=""font-size:60px;"">+</div>","null","html-keyboard-response","623","438742","0.0-3.0-0.310","","fixation","","",""
"595","Set1/146b.jpg","79","image-keyboard-response","624","439344","0.0-3.0-1.310","","","Update","o","true"
"null","<div style=""font-size:60px;"">+</div>","null","html-keyboard-response","625","439857","0.0-3.0-0.311","","fixation","","",""
"451","Set1/160b.jpg","79","image-keyboard-response","626","440310","0.0-3.0-1.311","","","Update","o","true"
"null","<div style=""font-size:60px;"">+</div>","null","html-keyboard-response","627","440826","0.0-3.0-0.312","","fixation","","",""
"729","Set1/072a.jpg","79","image-keyboard-response","628","441557","0.0-3.0-1.312","","","Repeat","o","true"
"null","<div style=""font-size:60px;"">+</div>","null","html-keyboard-response","629","442075","0.0-3.0-0.313","","fixation","","",""
"468","Set1/076a.jpg","79","image-keyboard-response","630","442543","0.0-3.0-1.313","","","Repeat","o","true"
"null","<div style=""font-size:60px;"">+</div>","null","html-keyboard-response","631","443056","0.0-3.0-0.314","","fixation","","",""
"420","Set1/079a.jpg","79","image-keyboard-response","632","443478","0.0-3.0-1.314","","","Repeat","o","true"
"null","<div style=""font-size:60px;"">+</div>","null","html-keyboard-response","633","443989","0.0-3.0-0.315","","fixation","","",""
"518","Set1/033a.jpg","79","image-keyboard-response","634","444511","0.0-3.0-1.315","","","Repeat","o","true"
"null","<div style=""font-size:60px;"">+</div>","null","html-keyboard-response","635","445023","0.0-3.0-0.316","","fixation","","",""
"1069","Set1/051a.jpg","79","image-keyboard-response","636","446096","0.0-3.0-1.316","","","Repeat","n","false"
"null","<div style=""font-size:60px;"">+</div>","null","html-keyboard-response","637","446607","0.0-3.0-0.317","","fixation","","",""
"500","Set1/077a.jpg","79","image-keyboard-response","638","447109","0.0-3.0-1.317","","","Repeat","o","true"
"null","<div style=""font-size:60px;"">+</div>","null","html-keyboard-response","639","447627","0.0-3.0-0.318","","fixation","","",""
"433","Set1/051a.jpg","79","image-keyboard-response","640","448062","0.0-3.0-1.318","","","Repeat","o","true"
"null","<div style=""font-size:60px;"">+</div>","null","html-keyboard-response","641","448570","0.0-3.0-0.319","","fixation","","",""
"426","Set1/063a.jpg","79","image-keyboard-response","642","448998","0.0-3.0-1.319","","","Repeat","o","true"
