"rt","stimulus","key_press","trial_type","trial_index","time_elapsed","internal_node_id","responses","test_part","stim_type","correct_response","correct"
"26074","Press any key to begin.","32","html-keyboard-response","0","26090","0.0-0.0","","","","",""
"6249","","","survey-text","1","32344","0.0-1.0","{""Q0"":""Set2_128716"",""Q1"":""""}","","","",""
"1365","<p>In this experiment you will see a series of everyday objects presented one at a time at the center of the screen. Each image will be presented twice.</p><p>The first time you see the image, press the N key to indicat that it is a NEW image. The second time you see the image, press the O key to indicate that it is an OLD image.</p><p>Some of the images will be repeats from the first session of this task you did yesterday. I want you to treat those images as 'OLD' if you remember seeing them before. Some of the images will be very similar but not identical to an image that you have seen in the previous set. I want you to treat those images as 'NEW' the first time you see them and 'OLD' the second time.</p><div style='width: 700px;'></div><p>Press any key to begin.</p>","32","html-keyboard-response","2","33712","0.0-2.0","","","","",""
"null","<div style=""font-size:60px;"">+</div>","null","html-keyboard-response","3","36218","0.0-3.0-0.0","","fixation","","",""
"1201","Set1/037a.jpg","78","image-keyboard-response","4","37425","0.0-3.0-1.0","","","Repeat","n","true"
"null","<div style=""font-size:60px;"">+</div>","null","html-keyboard-response","5","37937","0.0-3.0-0.1","","fixation","","",""
"null","Set1/095a.jpg","null","image-keyboard-response","6","47941","0.0-3.0-1.1","","","Repeat","n","false"
"null","<div style=""font-size:60px;"">+</div>","null","html-keyboard-response","7","48454","0.0-3.0-0.2","","fixation","","",""
"1384","Set1/080a.jpg","78","image-keyboard-response","8","49840","0.0-3.0-1.2","","","Repeat","n","true"
"null","<div style=""font-size:60px;"">+</div>","null","html-keyboard-response","9","50344","0.0-3.0-0.3","","fixation","","",""
"574","Set1/142b.jpg","78","image-keyboard-response","10","50919","0.0-3.0-1.3","","","Update","n","true"
"null","<div style=""font-size:60px;"">+</div>","null","html-keyboard-response","11","51426","0.0-3.0-0.4","","fixation","","",""
"null","Set1/179a.jpg","null","image-keyboard-response","12","61428","0.0-3.0-1.4","","","Set_2_Only","n","false"
"null","<div style=""font-size:60px;"">+</div>","null","html-keyboard-response","13","61930","0.0-3.0-0.5","","fixation","","",""
"988","Set1/039a.jpg","78","image-keyboard-response","14","62919","0.0-3.0-1.5","","","Repeat","n","true"
"null","<div style=""font-size:60px;"">+</div>","null","html-keyboard-response","15","63421","0.0-3.0-0.6","","fixation","","",""
"768","Set1/172a.jpg","78","image-keyboard-response","16","64190","0.0-3.0-1.6","","","Set_2_Only","n","true"
"null","<div style=""font-size:60px;"">+</div>","null","html-keyboard-response","17","64692","0.0-3.0-0.7","","fixation","","",""
"1001","Set1/075a.jpg","79","image-keyboard-response","18","65695","0.0-3.0-1.7","","","Repeat","n","false"
"null","<div style=""font-size:60px;"">+</div>","null","html-keyboard-response","19","66197","0.0-3.0-0.8","","fixation","","",""
"1872","Set1/090a.jpg","78","image-keyboard-response","20","68070","0.0-3.0-1.8","","","Repeat","n","true"
"null","<div style=""font-size:60px;"">+</div>","null","html-keyboard-response","21","68573","0.0-3.0-0.9","","fixation","","",""
"1009","Set1/148b.jpg","78","image-keyboard-response","22","69583","0.0-3.0-1.9","","","Update","n","true"
"null","<div style=""font-size:60px;"">+</div>","null","html-keyboard-response","23","70090","0.0-3.0-0.10","","fixation","","",""
"650","Set1/172a.jpg","78","image-keyboard-response","24","70743","0.0-3.0-1.10","","","Set_2_Only","o","false"
"null","<div style=""font-size:60px;"">+</div>","null","html-keyboard-response","25","71250","0.0-3.0-0.11","","fixation","","",""
"635","Set1/035a.jpg","78","image-keyboard-response","26","71887","0.0-3.0-1.11","","","Repeat","n","true"
"null","<div style=""font-size:60px;"">+</div>","null","html-keyboard-response","27","72402","0.0-3.0-0.12","","fixation","","",""
"null","Set1/170a.jpg","null","image-keyboard-response","28","82411","0.0-3.0-1.12","","","Set_2_Only","n","false"
"null","<div style=""font-size:60px;"">+</div>","null","html-keyboard-response","29","82914","0.0-3.0-0.13","","fixation","","",""
"1743","Set1/179a.jpg","78","image-keyboard-response","30","84659","0.0-3.0-1.13","","","Set_2_Only","o","false"
"null","<div style=""font-size:60px;"">+</div>","null","html-keyboard-response","31","85170","0.0-3.0-0.14","","fixation","","",""
"null","Set1/153b.jpg","null","image-keyboard-response","32","95174","0.0-3.0-1.14","","","Update","n","false"
"null","<div style=""font-size:60px;"">+</div>","null","html-keyboard-response","33","95676","0.0-3.0-0.15","","fixation","","",""
"1065","Set1/083a.jpg","78","image-keyboard-response","34","96744","0.0-3.0-1.15","","","Repeat","n","true"
"null","<div style=""font-size:60px;"">+</div>","null","html-keyboard-response","35","97246","0.0-3.0-0.16","","fixation","","",""
"887","Set1/126b.jpg","78","image-keyboard-response","36","98134","0.0-3.0-1.16","","","Update","n","true"
"null","<div style=""font-size:60px;"">+</div>","null","html-keyboard-response","37","98641","0.0-3.0-0.17","","fixation","","",""
"1516","Set1/135b.jpg","79","image-keyboard-response","38","100159","0.0-3.0-1.17","","","Update","n","false"
"null","<div style=""font-size:60px;"">+</div>","null","html-keyboard-response","39","100671","0.0-3.0-0.18","","fixation","","",""
"871","Set1/108b.jpg","78","image-keyboard-response","40","101543","0.0-3.0-1.18","","","Update","n","true"
"null","<div style=""font-size:60px;"">+</div>","null","html-keyboard-response","41","102049","0.0-3.0-0.19","","fixation","","",""
"1020","Set1/142b.jpg","79","image-keyboard-response","42","103071","0.0-3.0-1.19","","","Update","o","true"
"null","<div style=""font-size:60px;"">+</div>","null","html-keyboard-response","43","103573","0.0-3.0-0.20","","fixation","","",""
"800","Set1/138b.jpg","78","image-keyboard-response","44","104375","0.0-3.0-1.20","","","Update","n","true"
"null","<div style=""font-size:60px;"">+</div>","null","html-keyboard-response","45","104876","0.0-3.0-0.21","","fixation","","",""
"977","Set1/171a.jpg","78","image-keyboard-response","46","105855","0.0-3.0-1.21","","","Set_2_Only","n","true"
"null","<div style=""font-size:60px;"">+</div>","null","html-keyboard-response","47","106358","0.0-3.0-0.22","","fixation","","",""
"704","Set1/148b.jpg","78","image-keyboard-response","48","107063","0.0-3.0-1.22","","","Update","o","false"
"null","<div style=""font-size:60px;"">+</div>","null","html-keyboard-response","49","107572","0.0-3.0-0.23","","fixation","","",""
"681","Set1/083a.jpg","78","image-keyboard-response","50","108254","0.0-3.0-1.23","","","Repeat","o","false"
"null","<div style=""font-size:60px;"">+</div>","null","html-keyboard-response","51","108757","0.0-3.0-0.24","","fixation","","",""
"881","Set1/141b.jpg","78","image-keyboard-response","52","109639","0.0-3.0-1.24","","","Update","n","true"
"null","<div style=""font-size:60px;"">+</div>","null","html-keyboard-response","53","110146","0.0-3.0-0.25","","fixation","","",""
"620","Set1/123b.jpg","78","image-keyboard-response","54","110767","0.0-3.0-1.25","","","Update","n","true"
"null","<div style=""font-size:60px;"">+</div>","null","html-keyboard-response","55","111274","0.0-3.0-0.26","","fixation","","",""
"891","Set1/145b.jpg","79","image-keyboard-response","56","112166","0.0-3.0-1.26","","","Update","n","false"
"null","<div style=""font-size:60px;"">+</div>","null","html-keyboard-response","57","112672","0.0-3.0-0.27","","fixation","","",""
"845","Set1/175a.jpg","78","image-keyboard-response","58","113519","0.0-3.0-1.27","","","Set_2_Only","n","true"
"null","<div style=""font-size:60px;"">+</div>","null","html-keyboard-response","59","114027","0.0-3.0-0.28","","fixation","","",""
"770","Set1/177a.jpg","78","image-keyboard-response","60","114799","0.0-3.0-1.28","","","Set_2_Only","n","true"
"null","<div style=""font-size:60px;"">+</div>","null","html-keyboard-response","61","115307","0.0-3.0-0.29","","fixation","","",""
"850","Set1/119b.jpg","78","image-keyboard-response","62","116158","0.0-3.0-1.29","","","Update","n","true"
"null","<div style=""font-size:60px;"">+</div>","null","html-keyboard-response","63","116672","0.0-3.0-0.30","","fixation","","",""
"854","Set1/177a.jpg","79","image-keyboard-response","64","117527","0.0-3.0-1.30","","","Set_2_Only","o","true"
"null","<div style=""font-size:60px;"">+</div>","null","html-keyboard-response","65","118040","0.0-3.0-0.31","","fixation","","",""
"861","Set1/038a.jpg","78","image-keyboard-response","66","118902","0.0-3.0-1.31","","","Repeat","n","true"
"null","<div style=""font-size:60px;"">+</div>","null","html-keyboard-response","67","119418","0.0-3.0-0.32","","fixation","","",""
"627","Set1/035a.jpg","79","image-keyboard-response","68","120046","0.0-3.0-1.32","","","Repeat","o","true"
"null","<div style=""font-size:60px;"">+</div>","null","html-keyboard-response","69","120556","0.0-3.0-0.33","","fixation","","",""
"689","Set1/171a.jpg","79","image-keyboard-response","70","121247","0.0-3.0-1.33","","","Set_2_Only","o","true"
"null","<div style=""font-size:60px;"">+</div>","null","html-keyboard-response","71","121749","0.0-3.0-0.34","","fixation","","",""
"664","Set1/157b.jpg","78","image-keyboard-response","72","122415","0.0-3.0-1.34","","","Update","n","true"
"null","<div style=""font-size:60px;"">+</div>","null","html-keyboard-response","73","122927","0.0-3.0-0.35","","fixation","","",""
"1855","Set1/170a.jpg","78","image-keyboard-response","74","124783","0.0-3.0-1.35","","","Set_2_Only","o","false"
"null","<div style=""font-size:60px;"">+</div>","null","html-keyboard-response","75","125290","0.0-3.0-0.36","","fixation","","",""
"635","Set1/135b.jpg","79","image-keyboard-response","76","125927","0.0-3.0-1.36","","","Update","o","true"
"null","<div style=""font-size:60px;"">+</div>","null","html-keyboard-response","77","126435","0.0-3.0-0.37","","fixation","","",""
"610","Set1/090a.jpg","79","image-keyboard-response","78","127047","0.0-3.0-1.37","","","Repeat","o","true"
"null","<div style=""font-size:60px;"">+</div>","null","html-keyboard-response","79","127555","0.0-3.0-0.38","","fixation","","",""
"1731","Set1/095a.jpg","79","image-keyboard-response","80","129288","0.0-3.0-1.38","","","Repeat","o","true"
"null","<div style=""font-size:60px;"">+</div>","null","html-keyboard-response","81","129791","0.0-3.0-0.39","","fixation","","",""
"654","Set1/108b.jpg","79","image-keyboard-response","82","130447","0.0-3.0-1.39","","","Update","o","true"
"null","<div style=""font-size:60px;"">+</div>","null","html-keyboard-response","83","130959","0.0-3.0-0.40","","fixation","","",""
"879","Set1/040a.jpg","78","image-keyboard-response","84","131839","0.0-3.0-1.40","","","Repeat","n","true"
"null","<div style=""font-size:60px;"">+</div>","null","html-keyboard-response","85","132352","0.0-3.0-0.41","","fixation","","",""
"1918","Set1/058a.jpg","78","image-keyboard-response","86","134271","0.0-3.0-1.41","","","Repeat","n","true"
"null","<div style=""font-size:60px;"">+</div>","null","html-keyboard-response","87","134777","0.0-3.0-0.42","","fixation","","",""
"1412","Set1/140b.jpg","78","image-keyboard-response","88","136191","0.0-3.0-1.42","","","Update","n","true"
"null","<div style=""font-size:60px;"">+</div>","null","html-keyboard-response","89","136704","0.0-3.0-0.43","","fixation","","",""
"742","Set1/037a.jpg","79","image-keyboard-response","90","137447","0.0-3.0-1.43","","","Repeat","o","true"
"null","<div style=""font-size:60px;"">+</div>","null","html-keyboard-response","91","137959","0.0-3.0-0.44","","fixation","","",""
"1007","Set1/153b.jpg","78","image-keyboard-response","92","138967","0.0-3.0-1.44","","","Update","o","false"
"null","<div style=""font-size:60px;"">+</div>","null","html-keyboard-response","93","139472","0.0-3.0-0.45","","fixation","","",""
"662","Set1/168a.jpg","78","image-keyboard-response","94","140136","0.0-3.0-1.45","","","Set_2_Only","n","true"
"null","<div style=""font-size:60px;"">+</div>","null","html-keyboard-response","95","140639","0.0-3.0-0.46","","fixation","","",""
"695","Set1/091a.jpg","78","image-keyboard-response","96","141335","0.0-3.0-1.46","","","Repeat","n","true"
"null","<div style=""font-size:60px;"">+</div>","null","html-keyboard-response","97","141839","0.0-3.0-0.47","","fixation","","",""
"790","Set1/119b.jpg","78","image-keyboard-response","98","142631","0.0-3.0-1.47","","","Update","o","false"
"null","<div style=""font-size:60px;"">+</div>","null","html-keyboard-response","99","143145","0.0-3.0-0.48","","fixation","","",""
"659","Set1/168a.jpg","78","image-keyboard-response","100","143807","0.0-3.0-1.48","","","Set_2_Only","o","false"
"null","<div style=""font-size:60px;"">+</div>","null","html-keyboard-response","101","144315","0.0-3.0-0.49","","fixation","","",""
"683","Set1/038a.jpg","79","image-keyboard-response","102","144999","0.0-3.0-1.49","","","Repeat","o","true"
"null","<div style=""font-size:60px;"">+</div>","null","html-keyboard-response","103","145506","0.0-3.0-0.50","","fixation","","",""
"1291","Set1/154b.jpg","78","image-keyboard-response","104","146799","0.0-3.0-1.50","","","Update","n","true"
"null","<div style=""font-size:60px;"">+</div>","null","html-keyboard-response","105","147308","0.0-3.0-0.51","","fixation","","",""
"1778","Set1/067a.jpg","79","image-keyboard-response","106","149087","0.0-3.0-1.51","","","Repeat","n","false"
"null","<div style=""font-size:60px;"">+</div>","null","html-keyboard-response","107","149589","0.0-3.0-0.52","","fixation","","",""
"657","Set1/080a.jpg","79","image-keyboard-response","108","150247","0.0-3.0-1.52","","","Repeat","o","true"
"null","<div style=""font-size:60px;"">+</div>","null","html-keyboard-response","109","150749","0.0-3.0-0.53","","fixation","","",""
"552","Set1/154b.jpg","79","image-keyboard-response","110","151303","0.0-3.0-1.53","","","Update","o","true"
"null","<div style=""font-size:60px;"">+</div>","null","html-keyboard-response","111","151806","0.0-3.0-0.54","","fixation","","",""
"728","Set1/087a.jpg","78","image-keyboard-response","112","152535","0.0-3.0-1.54","","","Repeat","n","true"
"null","<div style=""font-size:60px;"">+</div>","null","html-keyboard-response","113","153040","0.0-3.0-0.55","","fixation","","",""
"1054","Set1/149b.jpg","79","image-keyboard-response","114","154095","0.0-3.0-1.55","","","Update","n","false"
"null","<div style=""font-size:60px;"">+</div>","null","html-keyboard-response","115","154605","0.0-3.0-0.56","","fixation","","",""
"962","Set1/173a.jpg","78","image-keyboard-response","116","155567","0.0-3.0-1.56","","","Set_2_Only","n","true"
"null","<div style=""font-size:60px;"">+</div>","null","html-keyboard-response","117","156083","0.0-3.0-0.57","","fixation","","",""
"715","Set1/040a.jpg","79","image-keyboard-response","118","156799","0.0-3.0-1.57","","","Repeat","o","true"
"null","<div style=""font-size:60px;"">+</div>","null","html-keyboard-response","119","157307","0.0-3.0-0.58","","fixation","","",""
"699","Set1/058a.jpg","79","image-keyboard-response","120","158007","0.0-3.0-1.58","","","Repeat","o","true"
"null","<div style=""font-size:60px;"">+</div>","null","html-keyboard-response","121","158521","0.0-3.0-0.59","","fixation","","",""
"452","Set1/173a.jpg","79","image-keyboard-response","122","158975","0.0-3.0-1.59","","","Set_2_Only","o","true"
"null","<div style=""font-size:60px;"">+</div>","null","html-keyboard-response","123","159488","0.0-3.0-0.60","","fixation","","",""
"717","Set1/140b.jpg","79","image-keyboard-response","124","160207","0.0-3.0-1.60","","","Update","o","true"
"null","<div style=""font-size:60px;"">+</div>","null","html-keyboard-response","125","160708","0.0-3.0-0.61","","fixation","","",""
"883","Set1/187a.jpg","78","image-keyboard-response","126","161592","0.0-3.0-1.61","","","Set_2_Only","n","true"
"null","<div style=""font-size:60px;"">+</div>","null","html-keyboard-response","127","162093","0.0-3.0-0.62","","fixation","","",""
"649","Set1/067a.jpg","79","image-keyboard-response","128","162743","0.0-3.0-1.62","","","Repeat","o","true"
"null","<div style=""font-size:60px;"">+</div>","null","html-keyboard-response","129","163256","0.0-3.0-0.63","","fixation","","",""
"726","Set1/126b.jpg","79","image-keyboard-response","130","163983","0.0-3.0-1.63","","","Update","o","true"
"null","<div style=""font-size:60px;"">+</div>","null","html-keyboard-response","131","164489","0.0-3.0-0.64","","fixation","","",""
"741","Set1/188a.jpg","78","image-keyboard-response","132","165231","0.0-3.0-1.64","","","Set_2_Only","n","true"
"null","<div style=""font-size:60px;"">+</div>","null","html-keyboard-response","133","165734","0.0-3.0-0.65","","fixation","","",""
"1736","Set1/145b.jpg","79","image-keyboard-response","134","167471","0.0-3.0-1.65","","","Update","o","true"
"null","<div style=""font-size:60px;"">+</div>","null","html-keyboard-response","135","167972","0.0-3.0-0.66","","fixation","","",""
"585","Set1/075a.jpg","79","image-keyboard-response","136","168560","0.0-3.0-1.66","","","Repeat","o","true"
"null","<div style=""font-size:60px;"">+</div>","null","html-keyboard-response","137","169077","0.0-3.0-0.67","","fixation","","",""
"1097","Set1/059a.jpg","79","image-keyboard-response","138","170175","0.0-3.0-1.67","","","Repeat","n","false"
"null","<div style=""font-size:60px;"">+</div>","null","html-keyboard-response","139","170689","0.0-3.0-0.68","","fixation","","",""
"781","Set1/149b.jpg","79","image-keyboard-response","140","171471","0.0-3.0-1.68","","","Update","o","true"
"null","<div style=""font-size:60px;"">+</div>","null","html-keyboard-response","141","171987","0.0-3.0-0.69","","fixation","","",""
"739","Set1/087a.jpg","79","image-keyboard-response","142","172727","0.0-3.0-1.69","","","Repeat","o","true"
"null","<div style=""font-size:60px;"">+</div>","null","html-keyboard-response","143","173239","0.0-3.0-0.70","","fixation","","",""
"702","Set1/187a.jpg","79","image-keyboard-response","144","173943","0.0-3.0-1.70","","","Set_2_Only","o","true"
"null","<div style=""font-size:60px;"">+</div>","null","html-keyboard-response","145","174454","0.0-3.0-0.71","","fixation","","",""
"591","Set1/059a.jpg","79","image-keyboard-response","146","175047","0.0-3.0-1.71","","","Repeat","o","true"
"null","<div style=""font-size:60px;"">+</div>","null","html-keyboard-response","147","175555","0.0-3.0-0.72","","fixation","","",""
"521","Set1/157b.jpg","79","image-keyboard-response","148","176079","0.0-3.0-1.72","","","Update","o","true"
"null","<div style=""font-size:60px;"">+</div>","null","html-keyboard-response","149","176589","0.0-3.0-0.73","","fixation","","",""
"601","Set1/123b.jpg","79","image-keyboard-response","150","177191","0.0-3.0-1.73","","","Update","o","true"
"null","<div style=""font-size:60px;"">+</div>","null","html-keyboard-response","151","177705","0.0-3.0-0.74","","fixation","","",""
"532","Set1/175a.jpg","79","image-keyboard-response","152","178239","0.0-3.0-1.74","","","Set_2_Only","o","true"
"null","<div style=""font-size:60px;"">+</div>","null","html-keyboard-response","153","178740","0.0-3.0-0.75","","fixation","","",""
"570","Set1/188a.jpg","78","image-keyboard-response","154","179311","0.0-3.0-1.75","","","Set_2_Only","o","false"
"null","<div style=""font-size:60px;"">+</div>","null","html-keyboard-response","155","179813","0.0-3.0-0.76","","fixation","","",""
"529","Set1/039a.jpg","79","image-keyboard-response","156","180343","0.0-3.0-1.76","","","Repeat","o","true"
"null","<div style=""font-size:60px;"">+</div>","null","html-keyboard-response","157","180845","0.0-3.0-0.77","","fixation","","",""
"513","Set1/141b.jpg","79","image-keyboard-response","158","181359","0.0-3.0-1.77","","","Update","o","true"
"null","<div style=""font-size:60px;"">+</div>","null","html-keyboard-response","159","181862","0.0-3.0-0.78","","fixation","","",""
"576","Set1/091a.jpg","79","image-keyboard-response","160","182439","0.0-3.0-1.78","","","Repeat","o","true"
"null","<div style=""font-size:60px;"">+</div>","null","html-keyboard-response","161","182940","0.0-3.0-0.79","","fixation","","",""
"490","Set1/138b.jpg","79","image-keyboard-response","162","183432","0.0-3.0-1.79","","","Update","o","true"
"null","<div style=""font-size:60px;"">+</div>","null","html-keyboard-response","163","183944","0.0-3.0-0.80","","fixation","","",""
"1174","Set1/055a.jpg","79","image-keyboard-response","164","185119","0.0-3.0-1.80","","","Repeat","n","false"
"null","<div style=""font-size:60px;"">+</div>","null","html-keyboard-response","165","185622","0.0-3.0-0.81","","fixation","","",""
"767","Set1/128b.jpg","78","image-keyboard-response","166","186391","0.0-3.0-1.81","","","Update","n","true"
"null","<div style=""font-size:60px;"">+</div>","null","html-keyboard-response","167","186893","0.0-3.0-0.82","","fixation","","",""
"737","Set1/046a.jpg","78","image-keyboard-response","168","187631","0.0-3.0-1.82","","","Repeat","n","true"
"null","<div style=""font-size:60px;"">+</div>","null","html-keyboard-response","169","188133","0.0-3.0-0.83","","fixation","","",""
"681","Set1/139b.jpg","78","image-keyboard-response","170","188815","0.0-3.0-1.83","","","Update","n","true"
"null","<div style=""font-size:60px;"">+</div>","null","html-keyboard-response","171","189325","0.0-3.0-0.84","","fixation","","",""
"634","Set1/084a.jpg","78","image-keyboard-response","172","189959","0.0-3.0-1.84","","","Repeat","n","true"
"null","<div style=""font-size:60px;"">+</div>","null","html-keyboard-response","173","190468","0.0-3.0-0.85","","fixation","","",""
"1138","Set1/147b.jpg","78","image-keyboard-response","174","191607","0.0-3.0-1.85","","","Update","n","true"
"null","<div style=""font-size:60px;"">+</div>","null","html-keyboard-response","175","192108","0.0-3.0-0.86","","fixation","","",""
"722","Set1/176a.jpg","78","image-keyboard-response","176","192831","0.0-3.0-1.86","","","Set_2_Only","n","true"
"null","<div style=""font-size:60px;"">+</div>","null","html-keyboard-response","177","193340","0.0-3.0-0.87","","fixation","","",""
"627","Set1/042a.jpg","78","image-keyboard-response","178","193968","0.0-3.0-1.87","","","Repeat","n","true"
"null","<div style=""font-size:60px;"">+</div>","null","html-keyboard-response","179","194473","0.0-3.0-0.88","","fixation","","",""
"1589","Set1/114b.jpg","78","image-keyboard-response","180","196063","0.0-3.0-1.88","","","Update","n","true"
"null","<div style=""font-size:60px;"">+</div>","null","html-keyboard-response","181","196567","0.0-3.0-0.89","","fixation","","",""
"1023","Set1/064a.jpg","79","image-keyboard-response","182","197592","0.0-3.0-1.89","","","Repeat","n","false"
"null","<div style=""font-size:60px;"">+</div>","null","html-keyboard-response","183","198095","0.0-3.0-0.90","","fixation","","",""
"935","Set1/036a.jpg","78","image-keyboard-response","184","199031","0.0-3.0-1.90","","","Repeat","n","true"
"null","<div style=""font-size:60px;"">+</div>","null","html-keyboard-response","185","199539","0.0-3.0-0.91","","fixation","","",""
"595","Set1/139b.jpg","79","image-keyboard-response","186","200135","0.0-3.0-1.91","","","Update","o","true"
"null","<div style=""font-size:60px;"">+</div>","null","html-keyboard-response","187","200639","0.0-3.0-0.92","","fixation","","",""
"687","Set1/128b.jpg","78","image-keyboard-response","188","201328","0.0-3.0-1.92","","","Update","o","false"
"null","<div style=""font-size:60px;"">+</div>","null","html-keyboard-response","189","201830","0.0-3.0-0.93","","fixation","","",""
"888","Set1/044a.jpg","78","image-keyboard-response","190","202719","0.0-3.0-1.93","","","Repeat","n","true"
"null","<div style=""font-size:60px;"">+</div>","null","html-keyboard-response","191","203230","0.0-3.0-0.94","","fixation","","",""
"800","Set1/162a.jpg","78","image-keyboard-response","192","204032","0.0-3.0-1.94","","","Set_2_Only","n","true"
"null","<div style=""font-size:60px;"">+</div>","null","html-keyboard-response","193","204540","0.0-3.0-0.95","","fixation","","",""
"1178","Set1/074a.jpg","78","image-keyboard-response","194","205720","0.0-3.0-1.95","","","Repeat","n","true"
"null","<div style=""font-size:60px;"">+</div>","null","html-keyboard-response","195","206234","0.0-3.0-0.96","","fixation","","",""
"708","Set1/114b.jpg","79","image-keyboard-response","196","206943","0.0-3.0-1.96","","","Update","o","true"
"null","<div style=""font-size:60px;"">+</div>","null","html-keyboard-response","197","207457","0.0-3.0-0.97","","fixation","","",""
"1445","Set1/159b.jpg","78","image-keyboard-response","198","208903","0.0-3.0-1.97","","","Update","n","true"
"null","<div style=""font-size:60px;"">+</div>","null","html-keyboard-response","199","209416","0.0-3.0-0.98","","fixation","","",""
"1606","Set1/143b.jpg","78","image-keyboard-response","200","211023","0.0-3.0-1.98","","","Update","n","true"
"null","<div style=""font-size:60px;"">+</div>","null","html-keyboard-response","201","211538","0.0-3.0-0.99","","fixation","","",""
"1004","Set1/103b.jpg","78","image-keyboard-response","202","212543","0.0-3.0-1.99","","","Update","n","true"
"null","<div style=""font-size:60px;"">+</div>","null","html-keyboard-response","203","213047","0.0-3.0-0.100","","fixation","","",""
"1504","Set1/047a.jpg","78","image-keyboard-response","204","214552","0.0-3.0-1.100","","","Repeat","n","true"
"null","<div style=""font-size:60px;"">+</div>","null","html-keyboard-response","205","215068","0.0-3.0-0.101","","fixation","","",""
"626","Set1/064a.jpg","79","image-keyboard-response","206","215695","0.0-3.0-1.101","","","Repeat","o","true"
"null","<div style=""font-size:60px;"">+</div>","null","html-keyboard-response","207","216196","0.0-3.0-0.102","","fixation","","",""
"946","Set1/191a.jpg","78","image-keyboard-response","208","217144","0.0-3.0-1.102","","","Set_2_Only","n","true"
"null","<div style=""font-size:60px;"">+</div>","null","html-keyboard-response","209","217656","0.0-3.0-0.103","","fixation","","",""
"990","Set1/071a.jpg","79","image-keyboard-response","210","218647","0.0-3.0-1.103","","","Repeat","n","false"
"null","<div style=""font-size:60px;"">+</div>","null","html-keyboard-response","211","219152","0.0-3.0-0.104","","fixation","","",""
"838","Set1/096a.jpg","78","image-keyboard-response","212","219991","0.0-3.0-1.104","","","Repeat","n","true"
"null","<div style=""font-size:60px;"">+</div>","null","html-keyboard-response","213","220505","0.0-3.0-0.105","","fixation","","",""
"1061","Set1/098b.jpg","79","image-keyboard-response","214","221567","0.0-3.0-1.105","","","Update","n","false"
"null","<div style=""font-size:60px;"">+</div>","null","html-keyboard-response","215","222073","0.0-3.0-0.106","","fixation","","",""
"829","Set1/106b.jpg","79","image-keyboard-response","216","222903","0.0-3.0-1.106","","","Update","n","false"
"null","<div style=""font-size:60px;"">+</div>","null","html-keyboard-response","217","223415","0.0-3.0-0.107","","fixation","","",""
"895","Set1/159b.jpg","79","image-keyboard-response","218","224311","0.0-3.0-1.107","","","Update","o","true"
"null","<div style=""font-size:60px;"">+</div>","null","html-keyboard-response","219","224815","0.0-3.0-0.108","","fixation","","",""
"552","Set1/071a.jpg","79","image-keyboard-response","220","225368","0.0-3.0-1.108","","","Repeat","o","true"
"null","<div style=""font-size:60px;"">+</div>","null","html-keyboard-response","221","225871","0.0-3.0-0.109","","fixation","","",""
"679","Set1/047a.jpg","79","image-keyboard-response","222","226551","0.0-3.0-1.109","","","Repeat","o","true"
"null","<div style=""font-size:60px;"">+</div>","null","html-keyboard-response","223","227062","0.0-3.0-0.110","","fixation","","",""
"793","Set1/144b.jpg","78","image-keyboard-response","224","227855","0.0-3.0-1.110","","","Update","n","true"
"null","<div style=""font-size:60px;"">+</div>","null","html-keyboard-response","225","228371","0.0-3.0-0.111","","fixation","","",""
"963","Set1/069a.jpg","78","image-keyboard-response","226","229336","0.0-3.0-1.111","","","Repeat","n","true"
"null","<div style=""font-size:60px;"">+</div>","null","html-keyboard-response","227","229838","0.0-3.0-0.112","","fixation","","",""
"696","Set1/034a.jpg","78","image-keyboard-response","228","230535","0.0-3.0-1.112","","","Repeat","n","true"
"null","<div style=""font-size:60px;"">+</div>","null","html-keyboard-response","229","231044","0.0-3.0-0.113","","fixation","","",""
"834","Set1/050a.jpg","79","image-keyboard-response","230","231879","0.0-3.0-1.113","","","Repeat","n","false"
"null","<div style=""font-size:60px;"">+</div>","null","html-keyboard-response","231","232390","0.0-3.0-0.114","","fixation","","",""
"704","Set1/068a.jpg","78","image-keyboard-response","232","233096","0.0-3.0-1.114","","","Repeat","n","true"
"null","<div style=""font-size:60px;"">+</div>","null","html-keyboard-response","233","233605","0.0-3.0-0.115","","fixation","","",""
"849","Set1/130b.jpg","78","image-keyboard-response","234","234455","0.0-3.0-1.115","","","Update","n","true"
"null","<div style=""font-size:60px;"">+</div>","null","html-keyboard-response","235","234971","0.0-3.0-0.116","","fixation","","",""
"731","Set1/046a.jpg","79","image-keyboard-response","236","235704","0.0-3.0-1.116","","","Repeat","o","true"
"null","<div style=""font-size:60px;"">+</div>","null","html-keyboard-response","237","236208","0.0-3.0-0.117","","fixation","","",""
"926","Set1/073a.jpg","78","image-keyboard-response","238","237136","0.0-3.0-1.117","","","Repeat","n","true"
"null","<div style=""font-size:60px;"">+</div>","null","html-keyboard-response","239","237640","0.0-3.0-0.118","","fixation","","",""
"662","Set1/078a.jpg","78","image-keyboard-response","240","238303","0.0-3.0-1.118","","","Repeat","n","true"
"null","<div style=""font-size:60px;"">+</div>","null","html-keyboard-response","241","238805","0.0-3.0-0.119","","fixation","","",""
"633","Set1/147b.jpg","79","image-keyboard-response","242","239439","0.0-3.0-1.119","","","Update","o","true"
"null","<div style=""font-size:60px;"">+</div>","null","html-keyboard-response","243","239943","0.0-3.0-0.120","","fixation","","",""
"791","Set1/066a.jpg","78","image-keyboard-response","244","240735","0.0-3.0-1.120","","","Repeat","n","true"
"null","<div style=""font-size:60px;"">+</div>","null","html-keyboard-response","245","241249","0.0-3.0-0.121","","fixation","","",""
"705","Set1/106b.jpg","79","image-keyboard-response","246","241956","0.0-3.0-1.121","","","Update","o","true"
"null","<div style=""font-size:60px;"">+</div>","null","html-keyboard-response","247","242468","0.0-3.0-0.122","","fixation","","",""
"1190","Set1/112b.jpg","78","image-keyboard-response","248","243659","0.0-3.0-1.122","","","Update","n","true"
"null","<div style=""font-size:60px;"">+</div>","null","html-keyboard-response","249","244161","0.0-3.0-0.123","","fixation","","",""
"673","Set1/185a.jpg","78","image-keyboard-response","250","244835","0.0-3.0-1.123","","","Set_2_Only","n","true"
"null","<div style=""font-size:60px;"">+</div>","null","html-keyboard-response","251","245351","0.0-3.0-0.124","","fixation","","",""
"700","Set1/036a.jpg","79","image-keyboard-response","252","246052","0.0-3.0-1.124","","","Repeat","o","true"
"null","<div style=""font-size:60px;"">+</div>","null","html-keyboard-response","253","246554","0.0-3.0-0.125","","fixation","","",""
"824","Set1/098b.jpg","79","image-keyboard-response","254","247379","0.0-3.0-1.125","","","Update","o","true"
"null","<div style=""font-size:60px;"">+</div>","null","html-keyboard-response","255","247886","0.0-3.0-0.126","","fixation","","",""
"812","Set1/096a.jpg","79","image-keyboard-response","256","248699","0.0-3.0-1.126","","","Repeat","o","true"
"null","<div style=""font-size:60px;"">+</div>","null","html-keyboard-response","257","249203","0.0-3.0-0.127","","fixation","","",""
"695","Set1/185a.jpg","78","image-keyboard-response","258","249900","0.0-3.0-1.127","","","Set_2_Only","o","false"
"null","<div style=""font-size:60px;"">+</div>","null","html-keyboard-response","259","250404","0.0-3.0-0.128","","fixation","","",""
"1102","Set1/066a.jpg","78","image-keyboard-response","260","251507","0.0-3.0-1.128","","","Repeat","o","false"
"null","<div style=""font-size:60px;"">+</div>","null","html-keyboard-response","261","252045","0.0-3.0-0.129","","fixation","","",""
"820","Set1/144b.jpg","79","image-keyboard-response","262","252867","0.0-3.0-1.129","","","Update","o","true"
"null","<div style=""font-size:60px;"">+</div>","null","html-keyboard-response","263","253381","0.0-3.0-0.130","","fixation","","",""
"965","Set1/112b.jpg","79","image-keyboard-response","264","254348","0.0-3.0-1.130","","","Update","o","true"
"null","<div style=""font-size:60px;"">+</div>","null","html-keyboard-response","265","254850","0.0-3.0-0.131","","fixation","","",""
"968","Set1/162a.jpg","78","image-keyboard-response","266","255819","0.0-3.0-1.131","","","Set_2_Only","o","false"
"null","<div style=""font-size:60px;"">+</div>","null","html-keyboard-response","267","256371","0.0-3.0-0.132","","fixation","","",""
"939","Set1/176a.jpg","79","image-keyboard-response","268","257340","0.0-3.0-1.132","","","Set_2_Only","o","true"
"null","<div style=""font-size:60px;"">+</div>","null","html-keyboard-response","269","257842","0.0-3.0-0.133","","fixation","","",""
"583","Set1/050a.jpg","79","image-keyboard-response","270","258427","0.0-3.0-1.133","","","Repeat","o","true"
"null","<div style=""font-size:60px;"">+</div>","null","html-keyboard-response","271","258931","0.0-3.0-0.134","","fixation","","",""
"838","Set1/078a.jpg","79","image-keyboard-response","272","259771","0.0-3.0-1.134","","","Repeat","o","true"
"null","<div style=""font-size:60px;"">+</div>","null","html-keyboard-response","273","260274","0.0-3.0-0.135","","fixation","","",""
"2720","Set1/150b.jpg","78","image-keyboard-response","274","262995","0.0-3.0-1.135","","","Update","n","true"
"null","<div style=""font-size:60px;"">+</div>","null","html-keyboard-response","275","263503","0.0-3.0-0.136","","fixation","","",""
"866","Set1/043a.jpg","78","image-keyboard-response","276","264372","0.0-3.0-1.136","","","Repeat","n","true"
"null","<div style=""font-size:60px;"">+</div>","null","html-keyboard-response","277","264874","0.0-3.0-0.137","","fixation","","",""
"609","Set1/100b.jpg","78","image-keyboard-response","278","265484","0.0-3.0-1.137","","","Update","n","true"
"null","<div style=""font-size:60px;"">+</div>","null","html-keyboard-response","279","265986","0.0-3.0-0.138","","fixation","","",""
"736","Set1/042a.jpg","79","image-keyboard-response","280","266724","0.0-3.0-1.138","","","Repeat","o","true"
"null","<div style=""font-size:60px;"">+</div>","null","html-keyboard-response","281","267230","0.0-3.0-0.139","","fixation","","",""
"885","Set1/131b.jpg","78","image-keyboard-response","282","268116","0.0-3.0-1.139","","","Update","n","true"
"null","<div style=""font-size:60px;"">+</div>","null","html-keyboard-response","283","268619","0.0-3.0-0.140","","fixation","","",""
"696","Set1/073a.jpg","79","image-keyboard-response","284","269316","0.0-3.0-1.140","","","Repeat","o","true"
"null","<div style=""font-size:60px;"">+</div>","null","html-keyboard-response","285","269818","0.0-3.0-0.141","","fixation","","",""
"920","Set1/074a.jpg","79","image-keyboard-response","286","270740","0.0-3.0-1.141","","","Repeat","o","true"
"null","<div style=""font-size:60px;"">+</div>","null","html-keyboard-response","287","271252","0.0-3.0-0.142","","fixation","","",""
"702","Set1/034a.jpg","79","image-keyboard-response","288","271955","0.0-3.0-1.142","","","Repeat","o","true"
"null","<div style=""font-size:60px;"">+</div>","null","html-keyboard-response","289","272468","0.0-3.0-0.143","","fixation","","",""
"509","Set1/068a.jpg","79","image-keyboard-response","290","272979","0.0-3.0-1.143","","","Repeat","o","true"
"null","<div style=""font-size:60px;"">+</div>","null","html-keyboard-response","291","273486","0.0-3.0-0.144","","fixation","","",""
"708","Set1/191a.jpg","79","image-keyboard-response","292","274196","0.0-3.0-1.144","","","Set_2_Only","o","true"
"null","<div style=""font-size:60px;"">+</div>","null","html-keyboard-response","293","274702","0.0-3.0-0.145","","fixation","","",""
"500","Set1/131b.jpg","79","image-keyboard-response","294","275203","0.0-3.0-1.145","","","Update","o","true"
"null","<div style=""font-size:60px;"">+</div>","null","html-keyboard-response","295","275705","0.0-3.0-0.146","","fixation","","",""
"608","Set1/043a.jpg","79","image-keyboard-response","296","276315","0.0-3.0-1.146","","","Repeat","o","true"
"null","<div style=""font-size:60px;"">+</div>","null","html-keyboard-response","297","276818","0.0-3.0-0.147","","fixation","","",""
"616","Set1/100b.jpg","78","image-keyboard-response","298","277436","0.0-3.0-1.147","","","Update","o","false"
"null","<div style=""font-size:60px;"">+</div>","null","html-keyboard-response","299","277939","0.0-3.0-0.148","","fixation","","",""
"671","Set1/055a.jpg","79","image-keyboard-response","300","278612","0.0-3.0-1.148","","","Repeat","o","true"
"null","<div style=""font-size:60px;"">+</div>","null","html-keyboard-response","301","279114","0.0-3.0-0.149","","fixation","","",""
"984","Set1/041a.jpg","78","image-keyboard-response","302","280099","0.0-3.0-1.149","","","Repeat","n","true"
"null","<div style=""font-size:60px;"">+</div>","null","html-keyboard-response","303","280603","0.0-3.0-0.150","","fixation","","",""
"807","Set1/069a.jpg","79","image-keyboard-response","304","281412","0.0-3.0-1.150","","","Repeat","o","true"
"null","<div style=""font-size:60px;"">+</div>","null","html-keyboard-response","305","281914","0.0-3.0-0.151","","fixation","","",""
"888","Set1/061a.jpg","78","image-keyboard-response","306","282803","0.0-3.0-1.151","","","Repeat","n","true"
"null","<div style=""font-size:60px;"">+</div>","null","html-keyboard-response","307","283319","0.0-3.0-0.152","","fixation","","",""
"827","Set1/103b.jpg","78","image-keyboard-response","308","284147","0.0-3.0-1.152","","","Update","o","false"
"null","<div style=""font-size:60px;"">+</div>","null","html-keyboard-response","309","284652","0.0-3.0-0.153","","fixation","","",""
"870","Set1/044a.jpg","79","image-keyboard-response","310","285524","0.0-3.0-1.153","","","Repeat","o","true"
"null","<div style=""font-size:60px;"">+</div>","null","html-keyboard-response","311","286036","0.0-3.0-0.154","","fixation","","",""
"614","Set1/150b.jpg","79","image-keyboard-response","312","286651","0.0-3.0-1.154","","","Update","o","true"
"null","<div style=""font-size:60px;"">+</div>","null","html-keyboard-response","313","287164","0.0-3.0-0.155","","fixation","","",""
"718","Set1/084a.jpg","79","image-keyboard-response","314","287883","0.0-3.0-1.155","","","Repeat","o","true"
"null","<div style=""font-size:60px;"">+</div>","null","html-keyboard-response","315","288386","0.0-3.0-0.156","","fixation","","",""
"577","Set1/130b.jpg","79","image-keyboard-response","316","288964","0.0-3.0-1.156","","","Update","o","true"
"null","<div style=""font-size:60px;"">+</div>","null","html-keyboard-response","317","289469","0.0-3.0-0.157","","fixation","","",""
"621","Set1/143b.jpg","79","image-keyboard-response","318","290091","0.0-3.0-1.157","","","Update","o","true"
"null","<div style=""font-size:60px;"">+</div>","null","html-keyboard-response","319","290601","0.0-3.0-0.158","","fixation","","",""
"1121","Set1/061a.jpg","79","image-keyboard-response","320","291723","0.0-3.0-1.158","","","Repeat","o","true"
"null","<div style=""font-size:60px;"">+</div>","null","html-keyboard-response","321","292236","0.0-3.0-0.159","","fixation","","",""
"589","Set1/041a.jpg","79","image-keyboard-response","322","292827","0.0-3.0-1.159","","","Repeat","o","true"
"null","<div style=""font-size:60px;"">+</div>","null","html-keyboard-response","323","293333","0.0-3.0-0.160","","fixation","","",""
"701","Set1/113b.jpg","78","image-keyboard-response","324","294035","0.0-3.0-1.160","","","Update","n","true"
"null","<div style=""font-size:60px;"">+</div>","null","html-keyboard-response","325","294551","0.0-3.0-0.161","","fixation","","",""
"1491","Set1/105b.jpg","79","image-keyboard-response","326","296043","0.0-3.0-1.161","","","Update","n","false"
"null","<div style=""font-size:60px;"">+</div>","null","html-keyboard-response","327","296552","0.0-3.0-0.162","","fixation","","",""
"866","Set1/056a.jpg","78","image-keyboard-response","328","297419","0.0-3.0-1.162","","","Repeat","n","true"
"null","<div style=""font-size:60px;"">+</div>","null","html-keyboard-response","329","297936","0.0-3.0-0.163","","fixation","","",""
"818","Set1/070a.jpg","79","image-keyboard-response","330","298755","0.0-3.0-1.163","","","Repeat","n","false"
"null","<div style=""font-size:60px;"">+</div>","null","html-keyboard-response","331","299267","0.0-3.0-0.164","","fixation","","",""
"736","Set1/089a.jpg","79","image-keyboard-response","332","300004","0.0-3.0-1.164","","","Repeat","n","false"
"null","<div style=""font-size:60px;"">+</div>","null","html-keyboard-response","333","300517","0.0-3.0-0.165","","fixation","","",""
"852","Set1/165a.jpg","78","image-keyboard-response","334","301371","0.0-3.0-1.165","","","Set_2_Only","n","true"
"null","<div style=""font-size:60px;"">+</div>","null","html-keyboard-response","335","301874","0.0-3.0-0.166","","fixation","","",""
"1076","Set1/065a.jpg","79","image-keyboard-response","336","302952","0.0-3.0-1.166","","","Repeat","n","false"
"null","<div style=""font-size:60px;"">+</div>","null","html-keyboard-response","337","303456","0.0-3.0-0.167","","fixation","","",""
"878","Set1/104b.jpg","78","image-keyboard-response","338","304335","0.0-3.0-1.167","","","Update","n","true"
"null","<div style=""font-size:60px;"">+</div>","null","html-keyboard-response","339","304837","0.0-3.0-0.168","","fixation","","",""
"609","Set1/065a.jpg","79","image-keyboard-response","340","305447","0.0-3.0-1.168","","","Repeat","o","true"
"null","<div style=""font-size:60px;"">+</div>","null","html-keyboard-response","341","305958","0.0-3.0-0.169","","fixation","","",""
"1144","Set1/082a.jpg","78","image-keyboard-response","342","307103","0.0-3.0-1.169","","","Repeat","n","true"
"null","<div style=""font-size:60px;"">+</div>","null","html-keyboard-response","343","307605","0.0-3.0-0.170","","fixation","","",""
"1049","Set1/134b.jpg","78","image-keyboard-response","344","308655","0.0-3.0-1.170","","","Update","n","true"
"null","<div style=""font-size:60px;"">+</div>","null","html-keyboard-response","345","309171","0.0-3.0-0.171","","fixation","","",""
"755","Set1/158b.jpg","78","image-keyboard-response","346","309928","0.0-3.0-1.171","","","Update","n","true"
"null","<div style=""font-size:60px;"">+</div>","null","html-keyboard-response","347","310430","0.0-3.0-0.172","","fixation","","",""
"null","Set1/057a.jpg","null","image-keyboard-response","348","320437","0.0-3.0-1.172","","","Repeat","n","false"
"null","<div style=""font-size:60px;"">+</div>","null","html-keyboard-response","349","320939","0.0-3.0-0.173","","fixation","","",""
"978","Set1/105b.jpg","79","image-keyboard-response","350","321920","0.0-3.0-1.173","","","Update","o","true"
"null","<div style=""font-size:60px;"">+</div>","null","html-keyboard-response","351","322434","0.0-3.0-0.174","","fixation","","",""
"1676","Set1/161a.jpg","78","image-keyboard-response","352","324111","0.0-3.0-1.174","","","Set_2_Only","n","true"
"null","<div style=""font-size:60px;"">+</div>","null","html-keyboard-response","353","324622","0.0-3.0-0.175","","fixation","","",""
"936","Set1/101b.jpg","78","image-keyboard-response","354","325559","0.0-3.0-1.175","","","Update","n","true"
"null","<div style=""font-size:60px;"">+</div>","null","html-keyboard-response","355","326065","0.0-3.0-0.176","","fixation","","",""
"821","Set1/089a.jpg","79","image-keyboard-response","356","326888","0.0-3.0-1.176","","","Repeat","o","true"
"null","<div style=""font-size:60px;"">+</div>","null","html-keyboard-response","357","327390","0.0-3.0-0.177","","fixation","","",""
"552","Set1/101b.jpg","79","image-keyboard-response","358","327943","0.0-3.0-1.177","","","Update","o","true"
"null","<div style=""font-size:60px;"">+</div>","null","html-keyboard-response","359","328455","0.0-3.0-0.178","","fixation","","",""
"559","Set1/134b.jpg","79","image-keyboard-response","360","329015","0.0-3.0-1.178","","","Update","o","true"
"null","<div style=""font-size:60px;"">+</div>","null","html-keyboard-response","361","329522","0.0-3.0-0.179","","fixation","","",""
"827","Set1/161a.jpg","79","image-keyboard-response","362","330352","0.0-3.0-1.179","","","Set_2_Only","o","true"
"null","<div style=""font-size:60px;"">+</div>","null","html-keyboard-response","363","330855","0.0-3.0-0.180","","fixation","","",""
"751","Set1/116b.jpg","78","image-keyboard-response","364","331607","0.0-3.0-1.180","","","Update","n","true"
"null","<div style=""font-size:60px;"">+</div>","null","html-keyboard-response","365","332109","0.0-3.0-0.181","","fixation","","",""
"808","Set1/152b.jpg","78","image-keyboard-response","366","332920","0.0-3.0-1.181","","","Update","n","true"
"null","<div style=""font-size:60px;"">+</div>","null","html-keyboard-response","367","333423","0.0-3.0-0.182","","fixation","","",""
"1215","Set1/045a.jpg","79","image-keyboard-response","368","334639","0.0-3.0-1.182","","","Repeat","n","false"
"null","<div style=""font-size:60px;"">+</div>","null","html-keyboard-response","369","335149","0.0-3.0-0.183","","fixation","","",""
"809","Set1/183a.jpg","78","image-keyboard-response","370","335959","0.0-3.0-1.183","","","Set_2_Only","n","true"
"null","<div style=""font-size:60px;"">+</div>","null","html-keyboard-response","371","336465","0.0-3.0-0.184","","fixation","","",""
"917","Set1/053a.jpg","78","image-keyboard-response","372","337383","0.0-3.0-1.184","","","Repeat","n","true"
"null","<div style=""font-size:60px;"">+</div>","null","html-keyboard-response","373","337886","0.0-3.0-0.185","","fixation","","",""
"872","Set1/182a.jpg","78","image-keyboard-response","374","338759","0.0-3.0-1.185","","","Set_2_Only","n","true"
"null","<div style=""font-size:60px;"">+</div>","null","html-keyboard-response","375","339265","0.0-3.0-0.186","","fixation","","",""
"733","Set1/124b.jpg","78","image-keyboard-response","376","339999","0.0-3.0-1.186","","","Update","n","true"
"null","<div style=""font-size:60px;"">+</div>","null","html-keyboard-response","377","340506","0.0-3.0-0.187","","fixation","","",""
"932","Set1/155b.jpg","78","image-keyboard-response","378","341439","0.0-3.0-1.187","","","Update","n","true"
"null","<div style=""font-size:60px;"">+</div>","null","html-keyboard-response","379","341940","0.0-3.0-0.188","","fixation","","",""
"713","Set1/104b.jpg","79","image-keyboard-response","380","342655","0.0-3.0-1.188","","","Update","o","true"
"null","<div style=""font-size:60px;"">+</div>","null","html-keyboard-response","381","343167","0.0-3.0-0.189","","fixation","","",""
"871","Set1/052a.jpg","78","image-keyboard-response","382","344040","0.0-3.0-1.189","","","Repeat","n","true"
"null","<div style=""font-size:60px;"">+</div>","null","html-keyboard-response","383","344554","0.0-3.0-0.190","","fixation","","",""
"867","Set1/158b.jpg","79","image-keyboard-response","384","345423","0.0-3.0-1.190","","","Update","o","true"
"null","<div style=""font-size:60px;"">+</div>","null","html-keyboard-response","385","345937","0.0-3.0-0.191","","fixation","","",""
"693","Set1/184a.jpg","78","image-keyboard-response","386","346631","0.0-3.0-1.191","","","Set_2_Only","n","true"
"null","<div style=""font-size:60px;"">+</div>","null","html-keyboard-response","387","347143","0.0-3.0-0.192","","fixation","","",""
"527","Set1/052a.jpg","78","image-keyboard-response","388","347671","0.0-3.0-1.192","","","Repeat","o","false"
"null","<div style=""font-size:60px;"">+</div>","null","html-keyboard-response","389","348179","0.0-3.0-0.193","","fixation","","",""
"787","Set1/192a.jpg","78","image-keyboard-response","390","348967","0.0-3.0-1.193","","","Set_2_Only","n","true"
"null","<div style=""font-size:60px;"">+</div>","null","html-keyboard-response","391","349478","0.0-3.0-0.194","","fixation","","",""
"664","Set1/155b.jpg","79","image-keyboard-response","392","350143","0.0-3.0-1.194","","","Update","o","true"
"null","<div style=""font-size:60px;"">+</div>","null","html-keyboard-response","393","350656","0.0-3.0-0.195","","fixation","","",""
"526","Set1/070a.jpg","79","image-keyboard-response","394","351183","0.0-3.0-1.195","","","Repeat","o","true"
"null","<div style=""font-size:60px;"">+</div>","null","html-keyboard-response","395","351689","0.0-3.0-0.196","","fixation","","",""
"909","Set1/048a.jpg","78","image-keyboard-response","396","352599","0.0-3.0-1.196","","","Repeat","n","true"
"null","<div style=""font-size:60px;"">+</div>","null","html-keyboard-response","397","353108","0.0-3.0-0.197","","fixation","","",""
"682","Set1/122b.jpg","78","image-keyboard-response","398","353791","0.0-3.0-1.197","","","Update","n","true"
"null","<div style=""font-size:60px;"">+</div>","null","html-keyboard-response","399","354299","0.0-3.0-0.198","","fixation","","",""
"699","Set1/156b.jpg","78","image-keyboard-response","400","355000","0.0-3.0-1.198","","","Update","n","true"
"null","<div style=""font-size:60px;"">+</div>","null","html-keyboard-response","401","355506","0.0-3.0-0.199","","fixation","","",""
"604","Set1/097b.jpg","78","image-keyboard-response","402","356111","0.0-3.0-1.199","","","Update","n","true"
"null","<div style=""font-size:60px;"">+</div>","null","html-keyboard-response","403","356622","0.0-3.0-0.200","","fixation","","",""
"690","Set1/118b.jpg","78","image-keyboard-response","404","357315","0.0-3.0-1.200","","","Update","n","true"
"null","<div style=""font-size:60px;"">+</div>","null","html-keyboard-response","405","357817","0.0-3.0-0.201","","fixation","","",""
"645","Set1/183a.jpg","79","image-keyboard-response","406","358464","0.0-3.0-1.201","","","Set_2_Only","o","true"
"null","<div style=""font-size:60px;"">+</div>","null","html-keyboard-response","407","358980","0.0-3.0-0.202","","fixation","","",""
"970","Set1/107b.jpg","79","image-keyboard-response","408","359951","0.0-3.0-1.202","","","Update","n","false"
"null","<div style=""font-size:60px;"">+</div>","null","html-keyboard-response","409","360456","0.0-3.0-0.203","","fixation","","",""
"566","Set1/048a.jpg","78","image-keyboard-response","410","361023","0.0-3.0-1.203","","","Repeat","o","false"
"null","<div style=""font-size:60px;"">+</div>","null","html-keyboard-response","411","361538","0.0-3.0-0.204","","fixation","","",""
"670","Set1/116b.jpg","79","image-keyboard-response","412","362209","0.0-3.0-1.204","","","Update","o","true"
"null","<div style=""font-size:60px;"">+</div>","null","html-keyboard-response","413","362710","0.0-3.0-0.205","","fixation","","",""
"736","Set1/174a.jpg","78","image-keyboard-response","414","363449","0.0-3.0-1.205","","","Set_2_Only","n","true"
"null","<div style=""font-size:60px;"">+</div>","null","html-keyboard-response","415","363952","0.0-3.0-0.206","","fixation","","",""
"768","Set1/190a.jpg","78","image-keyboard-response","416","364720","0.0-3.0-1.206","","","Set_2_Only","n","true"
"null","<div style=""font-size:60px;"">+</div>","null","html-keyboard-response","417","365234","0.0-3.0-0.207","","fixation","","",""
"726","Set1/056a.jpg","79","image-keyboard-response","418","365961","0.0-3.0-1.207","","","Repeat","o","true"
"null","<div style=""font-size:60px;"">+</div>","null","html-keyboard-response","419","366475","0.0-3.0-0.208","","fixation","","",""
"804","Set1/085a.jpg","78","image-keyboard-response","420","367280","0.0-3.0-1.208","","","Repeat","n","true"
"null","<div style=""font-size:60px;"">+</div>","null","html-keyboard-response","421","367782","0.0-3.0-0.209","","fixation","","",""
"969","Set1/182a.jpg","79","image-keyboard-response","422","368753","0.0-3.0-1.209","","","Set_2_Only","o","true"
"null","<div style=""font-size:60px;"">+</div>","null","html-keyboard-response","423","369256","0.0-3.0-0.210","","fixation","","",""
"847","Set1/163a.jpg","78","image-keyboard-response","424","370105","0.0-3.0-1.210","","","Set_2_Only","n","true"
"null","<div style=""font-size:60px;"">+</div>","null","html-keyboard-response","425","370608","0.0-3.0-0.211","","fixation","","",""
"687","Set1/189a.jpg","78","image-keyboard-response","426","371297","0.0-3.0-1.211","","","Set_2_Only","n","true"
"null","<div style=""font-size:60px;"">+</div>","null","html-keyboard-response","427","371799","0.0-3.0-0.212","","fixation","","",""
"824","Set1/097b.jpg","79","image-keyboard-response","428","372625","0.0-3.0-1.212","","","Update","o","true"
"null","<div style=""font-size:60px;"">+</div>","null","html-keyboard-response","429","373137","0.0-3.0-0.213","","fixation","","",""
"901","Set1/113b.jpg","79","image-keyboard-response","430","374041","0.0-3.0-1.213","","","Update","o","true"
"null","<div style=""font-size:60px;"">+</div>","null","html-keyboard-response","431","374557","0.0-3.0-0.214","","fixation","","",""
"538","Set1/174a.jpg","79","image-keyboard-response","432","375097","0.0-3.0-1.214","","","Set_2_Only","o","true"
"null","<div style=""font-size:60px;"">+</div>","null","html-keyboard-response","433","375608","0.0-3.0-0.215","","fixation","","",""
"1112","Set1/115b.jpg","79","image-keyboard-response","434","376721","0.0-3.0-1.215","","","Update","n","false"
"null","<div style=""font-size:60px;"">+</div>","null","html-keyboard-response","435","377228","0.0-3.0-0.216","","fixation","","",""
"2100","Set1/124b.jpg","78","image-keyboard-response","436","379329","0.0-3.0-1.216","","","Update","o","false"
"null","<div style=""font-size:60px;"">+</div>","null","html-keyboard-response","437","379840","0.0-3.0-0.217","","fixation","","",""
"1335","Set1/186a.jpg","78","image-keyboard-response","438","381176","0.0-3.0-1.217","","","Set_2_Only","n","true"
"null","<div style=""font-size:60px;"">+</div>","null","html-keyboard-response","439","381690","0.0-3.0-0.218","","fixation","","",""
"718","Set1/169a.jpg","78","image-keyboard-response","440","382409","0.0-3.0-1.218","","","Set_2_Only","n","true"
"null","<div style=""font-size:60px;"">+</div>","null","html-keyboard-response","441","382913","0.0-3.0-0.219","","fixation","","",""
"718","Set1/192a.jpg","79","image-keyboard-response","442","383633","0.0-3.0-1.219","","","Set_2_Only","o","true"
"null","<div style=""font-size:60px;"">+</div>","null","html-keyboard-response","443","384134","0.0-3.0-0.220","","fixation","","",""
"641","Set1/163a.jpg","79","image-keyboard-response","444","384777","0.0-3.0-1.220","","","Set_2_Only","o","true"
"null","<div style=""font-size:60px;"">+</div>","null","html-keyboard-response","445","385278","0.0-3.0-0.221","","fixation","","",""
"505","Set1/118b.jpg","79","image-keyboard-response","446","385785","0.0-3.0-1.221","","","Update","o","true"
"null","<div style=""font-size:60px;"">+</div>","null","html-keyboard-response","447","386297","0.0-3.0-0.222","","fixation","","",""
"509","Set1/107b.jpg","79","image-keyboard-response","448","386809","0.0-3.0-1.222","","","Update","o","true"
"null","<div style=""font-size:60px;"">+</div>","null","html-keyboard-response","449","387324","0.0-3.0-0.223","","fixation","","",""
"811","Set1/062a.jpg","78","image-keyboard-response","450","388136","0.0-3.0-1.223","","","Repeat","n","true"
"null","<div style=""font-size:60px;"">+</div>","null","html-keyboard-response","451","388641","0.0-3.0-0.224","","fixation","","",""
"678","Set1/156b.jpg","79","image-keyboard-response","452","389321","0.0-3.0-1.224","","","Update","o","true"
"null","<div style=""font-size:60px;"">+</div>","null","html-keyboard-response","453","389823","0.0-3.0-0.225","","fixation","","",""
"768","Set1/186a.jpg","79","image-keyboard-response","454","390593","0.0-3.0-1.225","","","Set_2_Only","o","true"
"null","<div style=""font-size:60px;"">+</div>","null","html-keyboard-response","455","391104","0.0-3.0-0.226","","fixation","","",""
"583","Set1/045a.jpg","79","image-keyboard-response","456","391689","0.0-3.0-1.226","","","Repeat","o","true"
"null","<div style=""font-size:60px;"">+</div>","null","html-keyboard-response","457","392201","0.0-3.0-0.227","","fixation","","",""
"750","Set1/057a.jpg","78","image-keyboard-response","458","392953","0.0-3.0-1.227","","","Repeat","o","false"
"null","<div style=""font-size:60px;"">+</div>","null","html-keyboard-response","459","393469","0.0-3.0-0.228","","fixation","","",""
"635","Set1/184a.jpg","79","image-keyboard-response","460","394105","0.0-3.0-1.228","","","Set_2_Only","o","true"
"null","<div style=""font-size:60px;"">+</div>","null","html-keyboard-response","461","394608","0.0-3.0-0.229","","fixation","","",""
"807","Set1/165a.jpg","79","image-keyboard-response","462","395417","0.0-3.0-1.229","","","Set_2_Only","o","true"
"null","<div style=""font-size:60px;"">+</div>","null","html-keyboard-response","463","395926","0.0-3.0-0.230","","fixation","","",""
"569","Set1/062a.jpg","79","image-keyboard-response","464","396497","0.0-3.0-1.230","","","Repeat","o","true"
"null","<div style=""font-size:60px;"">+</div>","null","html-keyboard-response","465","397006","0.0-3.0-0.231","","fixation","","",""
"610","Set1/152b.jpg","79","image-keyboard-response","466","397617","0.0-3.0-1.231","","","Update","o","true"
"null","<div style=""font-size:60px;"">+</div>","null","html-keyboard-response","467","398128","0.0-3.0-0.232","","fixation","","",""
"824","Set1/053a.jpg","79","image-keyboard-response","468","398953","0.0-3.0-1.232","","","Repeat","o","true"
"null","<div style=""font-size:60px;"">+</div>","null","html-keyboard-response","469","399460","0.0-3.0-0.233","","fixation","","",""
"523","Set1/190a.jpg","79","image-keyboard-response","470","399985","0.0-3.0-1.233","","","Set_2_Only","o","true"
"null","<div style=""font-size:60px;"">+</div>","null","html-keyboard-response","471","400501","0.0-3.0-0.234","","fixation","","",""
"521","Set1/082a.jpg","79","image-keyboard-response","472","401025","0.0-3.0-1.234","","","Repeat","o","true"
"null","<div style=""font-size:60px;"">+</div>","null","html-keyboard-response","473","401540","0.0-3.0-0.235","","fixation","","",""
"524","Set1/085a.jpg","79","image-keyboard-response","474","402065","0.0-3.0-1.235","","","Repeat","o","true"
"null","<div style=""font-size:60px;"">+</div>","null","html-keyboard-response","475","402574","0.0-3.0-0.236","","fixation","","",""
"496","Set1/169a.jpg","79","image-keyboard-response","476","403073","0.0-3.0-1.236","","","Set_2_Only","o","true"
"null","<div style=""font-size:60px;"">+</div>","null","html-keyboard-response","477","403574","0.0-3.0-0.237","","fixation","","",""
"505","Set1/122b.jpg","79","image-keyboard-response","478","404081","0.0-3.0-1.237","","","Update","o","true"
"null","<div style=""font-size:60px;"">+</div>","null","html-keyboard-response","479","404590","0.0-3.0-0.238","","fixation","","",""
"553","Set1/189a.jpg","79","image-keyboard-response","480","405145","0.0-3.0-1.238","","","Set_2_Only","o","true"
"null","<div style=""font-size:60px;"">+</div>","null","html-keyboard-response","481","405657","0.0-3.0-0.239","","fixation","","",""
"503","Set1/115b.jpg","79","image-keyboard-response","482","406161","0.0-3.0-1.239","","","Update","o","true"
"null","<div style=""font-size:60px;"">+</div>","null","html-keyboard-response","483","406674","0.0-3.0-0.240","","fixation","","",""
"781","Set1/081a.jpg","78","image-keyboard-response","484","407457","0.0-3.0-1.240","","","Repeat","n","true"
"null","<div style=""font-size:60px;"">+</div>","null","html-keyboard-response","485","407967","0.0-3.0-0.241","","fixation","","",""
"1049","Set1/166a.jpg","78","image-keyboard-response","486","409017","0.0-3.0-1.241","","","Set_2_Only","n","true"
"null","<div style=""font-size:60px;"">+</div>","null","html-keyboard-response","487","409526","0.0-3.0-0.242","","fixation","","",""
"858","Set1/111b.jpg","78","image-keyboard-response","488","410385","0.0-3.0-1.242","","","Update","n","true"
"null","<div style=""font-size:60px;"">+</div>","null","html-keyboard-response","489","410887","0.0-3.0-0.243","","fixation","","",""
"840","Set1/063a.jpg","78","image-keyboard-response","490","411729","0.0-3.0-1.243","","","Repeat","n","true"
"null","<div style=""font-size:60px;"">+</div>","null","html-keyboard-response","491","412244","0.0-3.0-0.244","","fixation","","",""
"779","Set1/127b.jpg","78","image-keyboard-response","492","413025","0.0-3.0-1.244","","","Update","n","true"
"null","<div style=""font-size:60px;"">+</div>","null","html-keyboard-response","493","413541","0.0-3.0-0.245","","fixation","","",""
"947","Set1/077a.jpg","78","image-keyboard-response","494","414489","0.0-3.0-1.245","","","Repeat","n","true"
"null","<div style=""font-size:60px;"">+</div>","null","html-keyboard-response","495","414997","0.0-3.0-0.246","","fixation","","",""
"778","Set1/117b.jpg","78","image-keyboard-response","496","415777","0.0-3.0-1.246","","","Update","n","true"
"null","<div style=""font-size:60px;"">+</div>","null","html-keyboard-response","497","416290","0.0-3.0-0.247","","fixation","","",""
"669","Set1/110b.jpg","78","image-keyboard-response","498","416961","0.0-3.0-1.247","","","Update","n","true"
"null","<div style=""font-size:60px;"">+</div>","null","html-keyboard-response","499","417473","0.0-3.0-0.248","","fixation","","",""
"607","Set1/137b.jpg","78","image-keyboard-response","500","418081","0.0-3.0-1.248","","","Update","n","true"
"null","<div style=""font-size:60px;"">+</div>","null","html-keyboard-response","501","418591","0.0-3.0-0.249","","fixation","","",""
"625","Set1/146b.jpg","78","image-keyboard-response","502","419217","0.0-3.0-1.249","","","Update","n","true"
"null","<div style=""font-size:60px;"">+</div>","null","html-keyboard-response","503","419719","0.0-3.0-0.250","","fixation","","",""
"663","Set1/164a.jpg","78","image-keyboard-response","504","420385","0.0-3.0-1.250","","","Set_2_Only","n","true"
"null","<div style=""font-size:60px;"">+</div>","null","html-keyboard-response","505","420887","0.0-3.0-0.251","","fixation","","",""
"544","Set1/132b.jpg","78","image-keyboard-response","506","421433","0.0-3.0-1.251","","","Update","n","true"
"null","<div style=""font-size:60px;"">+</div>","null","html-keyboard-response","507","421944","0.0-3.0-0.252","","fixation","","",""
"612","Set1/136b.jpg","78","image-keyboard-response","508","422557","0.0-3.0-1.252","","","Update","n","true"
"null","<div style=""font-size:60px;"">+</div>","null","html-keyboard-response","509","423067","0.0-3.0-0.253","","fixation","","",""
"802","Set1/072a.jpg","78","image-keyboard-response","510","423869","0.0-3.0-1.253","","","Repeat","n","true"
"null","<div style=""font-size:60px;"">+</div>","null","html-keyboard-response","511","424379","0.0-3.0-0.254","","fixation","","",""
"841","Set1/049a.jpg","78","image-keyboard-response","512","425221","0.0-3.0-1.254","","","Repeat","n","true"
"null","<div style=""font-size:60px;"">+</div>","null","html-keyboard-response","513","425723","0.0-3.0-0.255","","fixation","","",""
"577","Set1/133b.jpg","78","image-keyboard-response","514","426302","0.0-3.0-1.255","","","Update","n","true"
"null","<div style=""font-size:60px;"">+</div>","null","html-keyboard-response","515","426805","0.0-3.0-0.256","","fixation","","",""
"551","Set1/109b.jpg","78","image-keyboard-response","516","427357","0.0-3.0-1.256","","","Update","n","true"
"null","<div style=""font-size:60px;"">+</div>","null","html-keyboard-response","517","427859","0.0-3.0-0.257","","fixation","","",""
"505","Set1/121b.jpg","78","image-keyboard-response","518","428365","0.0-3.0-1.257","","","Update","n","true"
"null","<div style=""font-size:60px;"">+</div>","null","html-keyboard-response","519","428869","0.0-3.0-0.258","","fixation","","",""
"647","Set1/111b.jpg","79","image-keyboard-response","520","429518","0.0-3.0-1.258","","","Update","o","true"
"null","<div style=""font-size:60px;"">+</div>","null","html-keyboard-response","521","430020","0.0-3.0-0.259","","fixation","","",""
"784","Set1/129b.jpg","78","image-keyboard-response","522","430805","0.0-3.0-1.259","","","Update","n","true"
"null","<div style=""font-size:60px;"">+</div>","null","html-keyboard-response","523","431314","0.0-3.0-0.260","","fixation","","",""
"762","Set1/088a.jpg","78","image-keyboard-response","524","432077","0.0-3.0-1.260","","","Repeat","n","true"
"null","<div style=""font-size:60px;"">+</div>","null","html-keyboard-response","525","432580","0.0-3.0-0.261","","fixation","","",""
"1432","Set1/136b.jpg","79","image-keyboard-response","526","434013","0.0-3.0-1.261","","","Update","o","true"
"null","<div style=""font-size:60px;"">+</div>","null","html-keyboard-response","527","434514","0.0-3.0-0.262","","fixation","","",""
"729","Set1/088a.jpg","79","image-keyboard-response","528","435245","0.0-3.0-1.262","","","Repeat","o","true"
"null","<div style=""font-size:60px;"">+</div>","null","html-keyboard-response","529","435748","0.0-3.0-0.263","","fixation","","",""
"832","Set1/125b.jpg","78","image-keyboard-response","530","436581","0.0-3.0-1.263","","","Update","n","true"
"null","<div style=""font-size:60px;"">+</div>","null","html-keyboard-response","531","437083","0.0-3.0-0.264","","fixation","","",""
"873","Set1/054a.jpg","78","image-keyboard-response","532","437957","0.0-3.0-1.264","","","Repeat","n","true"
"null","<div style=""font-size:60px;"">+</div>","null","html-keyboard-response","533","438462","0.0-3.0-0.265","","fixation","","",""
"789","Set1/099b.jpg","78","image-keyboard-response","534","439253","0.0-3.0-1.265","","","Update","n","true"
"null","<div style=""font-size:60px;"">+</div>","null","html-keyboard-response","535","439755","0.0-3.0-0.266","","fixation","","",""
"777","Set1/166a.jpg","79","image-keyboard-response","536","440534","0.0-3.0-1.266","","","Set_2_Only","o","true"
"null","<div style=""font-size:60px;"">+</div>","null","html-keyboard-response","537","441049","0.0-3.0-0.267","","fixation","","",""
"683","Set1/093a.jpg","78","image-keyboard-response","538","441733","0.0-3.0-1.267","","","Repeat","n","true"
"null","<div style=""font-size:60px;"">+</div>","null","html-keyboard-response","539","442238","0.0-3.0-0.268","","fixation","","",""
"958","Set1/060a.jpg","78","image-keyboard-response","540","443197","0.0-3.0-1.268","","","Repeat","n","true"
"null","<div style=""font-size:60px;"">+</div>","null","html-keyboard-response","541","443699","0.0-3.0-0.269","","fixation","","",""
"729","Set1/110b.jpg","79","image-keyboard-response","542","444429","0.0-3.0-1.269","","","Update","o","true"
"null","<div style=""font-size:60px;"">+</div>","null","html-keyboard-response","543","444945","0.0-3.0-0.270","","fixation","","",""
"891","Set1/093a.jpg","79","image-keyboard-response","544","445837","0.0-3.0-1.270","","","Repeat","o","true"
"null","<div style=""font-size:60px;"">+</div>","null","html-keyboard-response","545","446339","0.0-3.0-0.271","","fixation","","",""
"873","Set1/180a.jpg","78","image-keyboard-response","546","447213","0.0-3.0-1.271","","","Set_2_Only","n","true"
"null","<div style=""font-size:60px;"">+</div>","null","html-keyboard-response","547","447716","0.0-3.0-0.272","","fixation","","",""
"928","Set1/120b.jpg","78","image-keyboard-response","548","448645","0.0-3.0-1.272","","","Update","n","true"
"null","<div style=""font-size:60px;"">+</div>","null","html-keyboard-response","549","449161","0.0-3.0-0.273","","fixation","","",""
"691","Set1/178a.jpg","78","image-keyboard-response","550","449853","0.0-3.0-1.273","","","Set_2_Only","n","true"
"null","<div style=""font-size:60px;"">+</div>","null","html-keyboard-response","551","450363","0.0-3.0-0.274","","fixation","","",""
"738","Set1/079a.jpg","78","image-keyboard-response","552","451102","0.0-3.0-1.274","","","Repeat","n","true"
"null","<div style=""font-size:60px;"">+</div>","null","html-keyboard-response","553","451613","0.0-3.0-0.275","","fixation","","",""
"727","Set1/151b.jpg","78","image-keyboard-response","554","452341","0.0-3.0-1.275","","","Update","n","true"
"null","<div style=""font-size:60px;"">+</div>","null","html-keyboard-response","555","452844","0.0-3.0-0.276","","fixation","","",""
"600","Set1/181a.jpg","78","image-keyboard-response","556","453445","0.0-3.0-1.276","","","Set_2_Only","n","true"
"null","<div style=""font-size:60px;"">+</div>","null","html-keyboard-response","557","453947","0.0-3.0-0.277","","fixation","","",""
"649","Set1/099b.jpg","79","image-keyboard-response","558","454598","0.0-3.0-1.277","","","Update","o","true"
"null","<div style=""font-size:60px;"">+</div>","null","html-keyboard-response","559","455110","0.0-3.0-0.278","","fixation","","",""
"958","Set1/102b.jpg","79","image-keyboard-response","560","456069","0.0-3.0-1.278","","","Update","n","false"
"null","<div style=""font-size:60px;"">+</div>","null","html-keyboard-response","561","456579","0.0-3.0-0.279","","fixation","","",""
"696","Set1/167a.jpg","78","image-keyboard-response","562","457277","0.0-3.0-1.279","","","Set_2_Only","n","true"
"null","<div style=""font-size:60px;"">+</div>","null","html-keyboard-response","563","457779","0.0-3.0-0.280","","fixation","","",""
"465","Set1/102b.jpg","79","image-keyboard-response","564","458246","0.0-3.0-1.280","","","Update","o","true"
"null","<div style=""font-size:60px;"">+</div>","null","html-keyboard-response","565","458748","0.0-3.0-0.281","","fixation","","",""
"768","Set1/092a.jpg","78","image-keyboard-response","566","459517","0.0-3.0-1.281","","","Repeat","n","true"
"null","<div style=""font-size:60px;"">+</div>","null","html-keyboard-response","567","460026","0.0-3.0-0.282","","fixation","","",""
"634","Set1/081a.jpg","79","image-keyboard-response","568","460661","0.0-3.0-1.282","","","Repeat","o","true"
"null","<div style=""font-size:60px;"">+</div>","null","html-keyboard-response","569","461166","0.0-3.0-0.283","","fixation","","",""
"638","Set1/120b.jpg","79","image-keyboard-response","570","461806","0.0-3.0-1.283","","","Update","o","true"
"null","<div style=""font-size:60px;"">+</div>","null","html-keyboard-response","571","462314","0.0-3.0-0.284","","fixation","","",""
"null","Set1/076a.jpg","null","image-keyboard-response","572","472322","0.0-3.0-1.284","","","Repeat","n","false"
"null","<div style=""font-size:60px;"">+</div>","null","html-keyboard-response","573","472831","0.0-3.0-0.285","","fixation","","",""
"1149","Set1/033a.jpg","78","image-keyboard-response","574","473982","0.0-3.0-1.285","","","Repeat","n","true"
"null","<div style=""font-size:60px;"">+</div>","null","html-keyboard-response","575","474495","0.0-3.0-0.286","","fixation","","",""
"533","Set1/125b.jpg","78","image-keyboard-response","576","475030","0.0-3.0-1.286","","","Update","o","false"
"null","<div style=""font-size:60px;"">+</div>","null","html-keyboard-response","577","475545","0.0-3.0-0.287","","fixation","","",""
"787","Set1/127b.jpg","79","image-keyboard-response","578","476333","0.0-3.0-1.287","","","Update","o","true"
"null","<div style=""font-size:60px;"">+</div>","null","html-keyboard-response","579","476836","0.0-3.0-0.288","","fixation","","",""
"728","Set1/092a.jpg","79","image-keyboard-response","580","477565","0.0-3.0-1.288","","","Repeat","o","true"
"null","<div style=""font-size:60px;"">+</div>","null","html-keyboard-response","581","478079","0.0-3.0-0.289","","fixation","","",""
"588","Set1/181a.jpg","79","image-keyboard-response","582","478669","0.0-3.0-1.289","","","Set_2_Only","o","true"
"null","<div style=""font-size:60px;"">+</div>","null","html-keyboard-response","583","479176","0.0-3.0-0.290","","fixation","","",""
"1915","Set1/086a.jpg","79","image-keyboard-response","584","481093","0.0-3.0-1.290","","","Repeat","n","false"
"null","<div style=""font-size:60px;"">+</div>","null","html-keyboard-response","585","481597","0.0-3.0-0.291","","fixation","","",""
"614","Set1/109b.jpg","79","image-keyboard-response","586","482213","0.0-3.0-1.291","","","Update","o","true"
"null","<div style=""font-size:60px;"">+</div>","null","html-keyboard-response","587","482725","0.0-3.0-0.292","","fixation","","",""
"506","Set1/167a.jpg","79","image-keyboard-response","588","483232","0.0-3.0-1.292","","","Set_2_Only","o","true"
"null","<div style=""font-size:60px;"">+</div>","null","html-keyboard-response","589","483735","0.0-3.0-0.293","","fixation","","",""
"471","Set1/129b.jpg","79","image-keyboard-response","590","484208","0.0-3.0-1.293","","","Update","o","true"
"null","<div style=""font-size:60px;"">+</div>","null","html-keyboard-response","591","484710","0.0-3.0-0.294","","fixation","","",""
"416","Set1/180a.jpg","79","image-keyboard-response","592","485128","0.0-3.0-1.294","","","Set_2_Only","o","true"
"null","<div style=""font-size:60px;"">+</div>","null","html-keyboard-response","593","485638","0.0-3.0-0.295","","fixation","","",""
"567","Set1/121b.jpg","79","image-keyboard-response","594","486208","0.0-3.0-1.295","","","Update","o","true"
"null","<div style=""font-size:60px;"">+</div>","null","html-keyboard-response","595","486710","0.0-3.0-0.296","","fixation","","",""
"1256","Set1/178a.jpg","78","image-keyboard-response","596","487968","0.0-3.0-1.296","","","Set_2_Only","o","false"
"null","<div style=""font-size:60px;"">+</div>","null","html-keyboard-response","597","488474","0.0-3.0-0.297","","fixation","","",""
"null","Set1/094a.jpg","null","image-keyboard-response","598","498485","0.0-3.0-1.297","","","Repeat","n","false"
"null","<div style=""font-size:60px;"">+</div>","null","html-keyboard-response","599","498987","0.0-3.0-0.298","","fixation","","",""
"747","Set1/137b.jpg","78","image-keyboard-response","600","499736","0.0-3.0-1.298","","","Update","o","false"
"null","<div style=""font-size:60px;"">+</div>","null","html-keyboard-response","601","500249","0.0-3.0-0.299","","fixation","","",""
"701","Set1/060a.jpg","78","image-keyboard-response","602","500952","0.0-3.0-1.299","","","Repeat","o","false"
"null","<div style=""font-size:60px;"">+</div>","null","html-keyboard-response","603","501457","0.0-3.0-0.300","","fixation","","",""
"909","Set1/133b.jpg","79","image-keyboard-response","604","502368","0.0-3.0-1.300","","","Update","o","true"
"null","<div style=""font-size:60px;"">+</div>","null","html-keyboard-response","605","502870","0.0-3.0-0.301","","fixation","","",""
"913","Set1/164a.jpg","78","image-keyboard-response","606","503784","0.0-3.0-1.301","","","Set_2_Only","o","false"
"null","<div style=""font-size:60px;"">+</div>","null","html-keyboard-response","607","504293","0.0-3.0-0.302","","fixation","","",""
"536","Set1/054a.jpg","79","image-keyboard-response","608","504832","0.0-3.0-1.302","","","Repeat","o","true"
"null","<div style=""font-size:60px;"">+</div>","null","html-keyboard-response","609","505343","0.0-3.0-0.303","","fixation","","",""
"863","Set1/117b.jpg","78","image-keyboard-response","610","506207","0.0-3.0-1.303","","","Update","o","false"
"null","<div style=""font-size:60px;"">+</div>","null","html-keyboard-response","611","506709","0.0-3.0-0.304","","fixation","","",""
"1064","Set1/049a.jpg","79","image-keyboard-response","612","507776","0.0-3.0-1.304","","","Repeat","o","true"
"null","<div style=""font-size:60px;"">+</div>","null","html-keyboard-response","613","508284","0.0-3.0-0.305","","fixation","","",""
"658","Set1/132b.jpg","78","image-keyboard-response","614","508944","0.0-3.0-1.305","","","Update","o","false"
"null","<div style=""font-size:60px;"">+</div>","null","html-keyboard-response","615","509456","0.0-3.0-0.306","","fixation","","",""
"670","Set1/151b.jpg","78","image-keyboard-response","616","510128","0.0-3.0-1.306","","","Update","o","false"
"null","<div style=""font-size:60px;"">+</div>","null","html-keyboard-response","617","510638","0.0-3.0-0.307","","fixation","","",""
"704","Set1/086a.jpg","79","image-keyboard-response","618","511344","0.0-3.0-1.307","","","Repeat","o","true"
"null","<div style=""font-size:60px;"">+</div>","null","html-keyboard-response","619","511846","0.0-3.0-0.308","","fixation","","",""
"824","Set1/160b.jpg","78","image-keyboard-response","620","512672","0.0-3.0-1.308","","","Update","n","true"
"null","<div style=""font-size:60px;"">+</div>","null","html-keyboard-response","621","513184","0.0-3.0-0.309","","fixation","","",""
"1117","Set1/094a.jpg","79","image-keyboard-response","622","514304","0.0-3.0-1.309","","","Repeat","o","true"
"null","<div style=""font-size:60px;"">+</div>","null","html-keyboard-response","623","514805","0.0-3.0-0.310","","fixation","","",""
"786","Set1/146b.jpg","78","image-keyboard-response","624","515592","0.0-3.0-1.310","","","Update","o","false"
"null","<div style=""font-size:60px;"">+</div>","null","html-keyboard-response","625","516100","0.0-3.0-0.311","","fixation","","",""
"762","Set1/160b.jpg","78","image-keyboard-response","626","516864","0.0-3.0-1.311","","","Update","o","false"
"null","<div style=""font-size:60px;"">+</div>","null","html-keyboard-response","627","517368","0.0-3.0-0.312","","fixation","","",""
"694","Set1/072a.jpg","79","image-keyboard-response","628","518064","0.0-3.0-1.312","","","Repeat","o","true"
"null","<div style=""font-size:60px;"">+</div>","null","html-keyboard-response","629","518574","0.0-3.0-0.313","","fixation","","",""
"633","Set1/076a.jpg","78","image-keyboard-response","630","519208","0.0-3.0-1.313","","","Repeat","o","false"
"null","<div style=""font-size:60px;"">+</div>","null","html-keyboard-response","631","519710","0.0-3.0-0.314","","fixation","","",""
"1120","Set1/079a.jpg","79","image-keyboard-response","632","520832","0.0-3.0-1.314","","","Repeat","o","true"
"null","<div style=""font-size:60px;"">+</div>","null","html-keyboard-response","633","521346","0.0-3.0-0.315","","fixation","","",""
"1101","Set1/033a.jpg","79","image-keyboard-response","634","522448","0.0-3.0-1.315","","","Repeat","o","true"
"null","<div style=""font-size:60px;"">+</div>","null","html-keyboard-response","635","522959","0.0-3.0-0.316","","fixation","","",""
"null","Set1/051a.jpg","null","image-keyboard-response","636","532962","0.0-3.0-1.316","","","Repeat","n","false"
"null","<div style=""font-size:60px;"">+</div>","null","html-keyboard-response","637","533468","0.0-3.0-0.317","","fixation","","",""
"770","Set1/077a.jpg","78","image-keyboard-response","638","534241","0.0-3.0-1.317","","","Repeat","o","false"
"null","<div style=""font-size:60px;"">+</div>","null","html-keyboard-response","639","534743","0.0-3.0-0.318","","fixation","","",""
"608","Set1/051a.jpg","78","image-keyboard-response","640","535352","0.0-3.0-1.318","","","Repeat","o","false"
"null","<div style=""font-size:60px;"">+</div>","null","html-keyboard-response","641","535854","0.0-3.0-0.319","","fixation","","",""
"719","Set1/063a.jpg","79","image-keyboard-response","642","536576","0.0-3.0-1.319","","","Repeat","o","true"
