"rt","stimulus","key_press","trial_type","trial_index","time_elapsed","internal_node_id","responses","test_part","stim_type","correct_response","correct"
"11362","Press any key to begin.","77","html-keyboard-response","0","11382","0.0-0.0","","","","",""
"52381","","","survey-text","1","63766","0.0-1.0","{""Q0"":""\""Set1128225\"""",""Q1"":""""}","","","",""
"11358","<p>In this experiment you will see a series of everyday objects presented one at a time at the center of the screen. Each image will be presented twice. </p><p>The first time you see the image, press the N key to indicate that it is a NEW image. The second time you see the image, press the O key to indicate that it is an OLD image.</p><div style='width: 700px;'></div><p>Press any key to begin.</p>","78","html-keyboard-response","2","75127","0.0-2.0","","","","",""
"null","<div style=""font-size:60px;"">+</div>","null","html-keyboard-response","3","77631","0.0-3.0-0.0","","fixation","","",""
"3346","Set1/063a.jpg","78","image-keyboard-response","4","80981","0.0-3.0-1.0","","","Repeat","n","true"
"null","<div style=""font-size:60px;"">+</div>","null","html-keyboard-response","5","81483","0.0-3.0-0.1","","fixation","","",""
"1330","Set1/064a.jpg","78","image-keyboard-response","6","82815","0.0-3.0-1.1","","","Repeat","n","true"
"null","<div style=""font-size:60px;"">+</div>","null","html-keyboard-response","7","83317","0.0-3.0-0.2","","fixation","","",""
"1028","Set1/047a.jpg","78","image-keyboard-response","8","84346","0.0-3.0-1.2","","","Repeat","n","true"
"null","<div style=""font-size:60px;"">+</div>","null","html-keyboard-response","9","84848","0.0-3.0-0.3","","fixation","","",""
"755","Set1/025a.jpg","78","image-keyboard-response","10","85603","0.0-3.0-1.3","","","Set_1_Only","n","true"
"null","<div style=""font-size:60px;"">+</div>","null","html-keyboard-response","11","86105","0.0-3.0-0.4","","fixation","","",""
"759","Set1/146a.jpg","78","image-keyboard-response","12","86866","0.0-3.0-1.4","","","Update","n","true"
"null","<div style=""font-size:60px;"">+</div>","null","html-keyboard-response","13","87366","0.0-3.0-0.5","","fixation","","",""
"1744","Set1/020a.jpg","78","image-keyboard-response","14","89111","0.0-3.0-1.5","","","Set_1_Only","n","true"
"null","<div style=""font-size:60px;"">+</div>","null","html-keyboard-response","15","89612","0.0-3.0-0.6","","fixation","","",""
"895","Set1/120a.jpg","78","image-keyboard-response","16","90509","0.0-3.0-1.6","","","Update","n","true"
"null","<div style=""font-size:60px;"">+</div>","null","html-keyboard-response","17","91010","0.0-3.0-0.7","","fixation","","",""
"762","Set1/148a.jpg","78","image-keyboard-response","18","91774","0.0-3.0-1.7","","","Update","n","true"
"null","<div style=""font-size:60px;"">+</div>","null","html-keyboard-response","19","92275","0.0-3.0-0.8","","fixation","","",""
"867","Set1/028a.jpg","78","image-keyboard-response","20","93144","0.0-3.0-1.8","","","Set_1_Only","n","true"
"null","<div style=""font-size:60px;"">+</div>","null","html-keyboard-response","21","93644","0.0-3.0-0.9","","fixation","","",""
"1030","Set1/071a.jpg","78","image-keyboard-response","22","94675","0.0-3.0-1.9","","","Repeat","n","true"
"null","<div style=""font-size:60px;"">+</div>","null","html-keyboard-response","23","95175","0.0-3.0-0.10","","fixation","","",""
"1088","Set1/030a.jpg","78","image-keyboard-response","24","96264","0.0-3.0-1.10","","","Set_1_Only","n","true"
"null","<div style=""font-size:60px;"">+</div>","null","html-keyboard-response","25","96765","0.0-3.0-0.11","","fixation","","",""
"957","Set1/037a.jpg","78","image-keyboard-response","26","97724","0.0-3.0-1.11","","","Repeat","n","true"
"null","<div style=""font-size:60px;"">+</div>","null","html-keyboard-response","27","98224","0.0-3.0-0.12","","fixation","","",""
"1599","Set1/120a.jpg","79","image-keyboard-response","28","99824","0.0-3.0-1.12","","","Update","o","true"
"null","<div style=""font-size:60px;"">+</div>","null","html-keyboard-response","29","100325","0.0-3.0-0.13","","fixation","","",""
"814","Set1/005a.jpg","78","image-keyboard-response","30","101140","0.0-3.0-1.13","","","Set_1_Only","n","true"
"null","<div style=""font-size:60px;"">+</div>","null","html-keyboard-response","31","101641","0.0-3.0-0.14","","fixation","","",""
"814","Set1/079a.jpg","78","image-keyboard-response","32","102456","0.0-3.0-1.14","","","Repeat","n","true"
"null","<div style=""font-size:60px;"">+</div>","null","html-keyboard-response","33","102957","0.0-3.0-0.15","","fixation","","",""
"968","Set1/136a.jpg","78","image-keyboard-response","34","103927","0.0-3.0-1.15","","","Update","n","true"
"null","<div style=""font-size:60px;"">+</div>","null","html-keyboard-response","35","104428","0.0-3.0-0.16","","fixation","","",""
"749","Set1/133a.jpg","78","image-keyboard-response","36","105178","0.0-3.0-1.16","","","Update","n","true"
"null","<div style=""font-size:60px;"">+</div>","null","html-keyboard-response","37","105679","0.0-3.0-0.17","","fixation","","",""
"628","Set1/128a.jpg","78","image-keyboard-response","38","106308","0.0-3.0-1.17","","","Update","n","true"
"null","<div style=""font-size:60px;"">+</div>","null","html-keyboard-response","39","106809","0.0-3.0-0.18","","fixation","","",""
"704","Set1/054a.jpg","78","image-keyboard-response","40","107514","0.0-3.0-1.18","","","Repeat","n","true"
"null","<div style=""font-size:60px;"">+</div>","null","html-keyboard-response","41","108015","0.0-3.0-0.19","","fixation","","",""
"795","Set1/108a.jpg","78","image-keyboard-response","42","108812","0.0-3.0-1.19","","","Update","n","true"
"null","<div style=""font-size:60px;"">+</div>","null","html-keyboard-response","43","109312","0.0-3.0-0.20","","fixation","","",""
"915","Set1/050a.jpg","78","image-keyboard-response","44","110228","0.0-3.0-1.20","","","Repeat","n","true"
"null","<div style=""font-size:60px;"">+</div>","null","html-keyboard-response","45","110729","0.0-3.0-0.21","","fixation","","",""
"1375","Set1/140a.jpg","78","image-keyboard-response","46","112106","0.0-3.0-1.21","","","Update","n","true"
"null","<div style=""font-size:60px;"">+</div>","null","html-keyboard-response","47","112608","0.0-3.0-0.22","","fixation","","",""
"652","Set1/051a.jpg","78","image-keyboard-response","48","113261","0.0-3.0-1.22","","","Repeat","n","true"
"null","<div style=""font-size:60px;"">+</div>","null","html-keyboard-response","49","113763","0.0-3.0-0.23","","fixation","","",""
"1667","Set1/063a.jpg","79","image-keyboard-response","50","115431","0.0-3.0-1.23","","","Repeat","o","true"
"null","<div style=""font-size:60px;"">+</div>","null","html-keyboard-response","51","115933","0.0-3.0-0.24","","fixation","","",""
"1283","Set1/006a.jpg","78","image-keyboard-response","52","117217","0.0-3.0-1.24","","","Set_1_Only","n","true"
"null","<div style=""font-size:60px;"">+</div>","null","html-keyboard-response","53","117718","0.0-3.0-0.25","","fixation","","",""
"747","Set1/158a.jpg","78","image-keyboard-response","54","118468","0.0-3.0-1.25","","","Update","n","true"
"null","<div style=""font-size:60px;"">+</div>","null","html-keyboard-response","55","118969","0.0-3.0-0.26","","fixation","","",""
"1424","Set1/020a.jpg","79","image-keyboard-response","56","120395","0.0-3.0-1.26","","","Set_1_Only","o","true"
"null","<div style=""font-size:60px;"">+</div>","null","html-keyboard-response","57","120897","0.0-3.0-0.27","","fixation","","",""
"1466","Set1/082a.jpg","78","image-keyboard-response","58","122364","0.0-3.0-1.27","","","Repeat","n","true"
"null","<div style=""font-size:60px;"">+</div>","null","html-keyboard-response","59","122866","0.0-3.0-0.28","","fixation","","",""
"1196","Set1/107a.jpg","78","image-keyboard-response","60","124063","0.0-3.0-1.28","","","Update","n","true"
"null","<div style=""font-size:60px;"">+</div>","null","html-keyboard-response","61","124564","0.0-3.0-0.29","","fixation","","",""
"1450","Set1/121a.jpg","78","image-keyboard-response","62","126015","0.0-3.0-1.29","","","Update","n","true"
"null","<div style=""font-size:60px;"">+</div>","null","html-keyboard-response","63","126516","0.0-3.0-0.30","","fixation","","",""
"816","Set1/085a.jpg","78","image-keyboard-response","64","127333","0.0-3.0-1.30","","","Repeat","n","true"
"null","<div style=""font-size:60px;"">+</div>","null","html-keyboard-response","65","127835","0.0-3.0-0.31","","fixation","","",""
"1458","Set1/136a.jpg","79","image-keyboard-response","66","129295","0.0-3.0-1.31","","","Update","o","true"
"null","<div style=""font-size:60px;"">+</div>","null","html-keyboard-response","67","129795","0.0-3.0-0.32","","fixation","","",""
"1037","Set1/049a.jpg","78","image-keyboard-response","68","130833","0.0-3.0-1.32","","","Repeat","n","true"
"null","<div style=""font-size:60px;"">+</div>","null","html-keyboard-response","69","131340","0.0-3.0-0.33","","fixation","","",""
"1030","Set1/133a.jpg","79","image-keyboard-response","70","132371","0.0-3.0-1.33","","","Update","o","true"
"null","<div style=""font-size:60px;"">+</div>","null","html-keyboard-response","71","132872","0.0-3.0-0.34","","fixation","","",""
"1398","Set1/093a.jpg","78","image-keyboard-response","72","134272","0.0-3.0-1.34","","","Repeat","n","true"
"null","<div style=""font-size:60px;"">+</div>","null","html-keyboard-response","73","134775","0.0-3.0-0.35","","fixation","","",""
"946","Set1/064a.jpg","79","image-keyboard-response","74","135723","0.0-3.0-1.35","","","Repeat","o","true"
"null","<div style=""font-size:60px;"">+</div>","null","html-keyboard-response","75","136223","0.0-3.0-0.36","","fixation","","",""
"1241","Set1/005a.jpg","79","image-keyboard-response","76","137465","0.0-3.0-1.36","","","Set_1_Only","o","true"
"null","<div style=""font-size:60px;"">+</div>","null","html-keyboard-response","77","137965","0.0-3.0-0.37","","fixation","","",""
"1094","Set1/128a.jpg","79","image-keyboard-response","78","139060","0.0-3.0-1.37","","","Update","o","true"
"null","<div style=""font-size:60px;"">+</div>","null","html-keyboard-response","79","139562","0.0-3.0-0.38","","fixation","","",""
"1274","Set1/044a.jpg","78","image-keyboard-response","80","140837","0.0-3.0-1.38","","","Repeat","n","true"
"null","<div style=""font-size:60px;"">+</div>","null","html-keyboard-response","81","141339","0.0-3.0-0.39","","fixation","","",""
"1196","Set1/037a.jpg","79","image-keyboard-response","82","142535","0.0-3.0-1.39","","","Repeat","o","true"
"null","<div style=""font-size:60px;"">+</div>","null","html-keyboard-response","83","143037","0.0-3.0-0.40","","fixation","","",""
"1630","Set1/088a.jpg","78","image-keyboard-response","84","144669","0.0-3.0-1.40","","","Repeat","n","true"
"null","<div style=""font-size:60px;"">+</div>","null","html-keyboard-response","85","145171","0.0-3.0-0.41","","fixation","","",""
"807","Set1/106a.jpg","78","image-keyboard-response","86","145981","0.0-3.0-1.41","","","Update","n","true"
"null","<div style=""font-size:60px;"">+</div>","null","html-keyboard-response","87","146481","0.0-3.0-0.42","","fixation","","",""
"2081","Set1/031a.jpg","78","image-keyboard-response","88","148563","0.0-3.0-1.42","","","Set_1_Only","n","true"
"null","<div style=""font-size:60px;"">+</div>","null","html-keyboard-response","89","149064","0.0-3.0-0.43","","fixation","","",""
"730","Set1/160a.jpg","78","image-keyboard-response","90","149796","0.0-3.0-1.43","","","Update","n","true"
"null","<div style=""font-size:60px;"">+</div>","null","html-keyboard-response","91","150296","0.0-3.0-0.44","","fixation","","",""
"904","Set1/025a.jpg","79","image-keyboard-response","92","151202","0.0-3.0-1.44","","","Set_1_Only","o","true"
"null","<div style=""font-size:60px;"">+</div>","null","html-keyboard-response","93","151702","0.0-3.0-0.45","","fixation","","",""
"1356","Set1/088a.jpg","79","image-keyboard-response","94","153061","0.0-3.0-1.45","","","Repeat","o","true"
"null","<div style=""font-size:60px;"">+</div>","null","html-keyboard-response","95","153562","0.0-3.0-0.46","","fixation","","",""
"976","Set1/093a.jpg","79","image-keyboard-response","96","154540","0.0-3.0-1.46","","","Repeat","o","true"
"null","<div style=""font-size:60px;"">+</div>","null","html-keyboard-response","97","155040","0.0-3.0-0.47","","fixation","","",""
"916","Set1/054a.jpg","79","image-keyboard-response","98","155958","0.0-3.0-1.47","","","Repeat","o","true"
"null","<div style=""font-size:60px;"">+</div>","null","html-keyboard-response","99","156458","0.0-3.0-0.48","","fixation","","",""
"1307","Set1/105a.jpg","78","image-keyboard-response","100","157766","0.0-3.0-1.48","","","Update","n","true"
"null","<div style=""font-size:60px;"">+</div>","null","html-keyboard-response","101","158267","0.0-3.0-0.49","","fixation","","",""
"2569","Set1/045a.jpg","78","image-keyboard-response","102","160837","0.0-3.0-1.49","","","Repeat","n","true"
"null","<div style=""font-size:60px;"">+</div>","null","html-keyboard-response","103","161338","0.0-3.0-0.50","","fixation","","",""
"1359","Set1/006a.jpg","79","image-keyboard-response","104","162700","0.0-3.0-1.50","","","Set_1_Only","o","true"
"null","<div style=""font-size:60px;"">+</div>","null","html-keyboard-response","105","163202","0.0-3.0-0.51","","fixation","","",""
"1361","Set1/140a.jpg","79","image-keyboard-response","106","164566","0.0-3.0-1.51","","","Update","o","true"
"null","<div style=""font-size:60px;"">+</div>","null","html-keyboard-response","107","165066","0.0-3.0-0.52","","fixation","","",""
"1209","Set1/027a.jpg","78","image-keyboard-response","108","166276","0.0-3.0-1.52","","","Set_1_Only","n","true"
"null","<div style=""font-size:60px;"">+</div>","null","html-keyboard-response","109","166777","0.0-3.0-0.53","","fixation","","",""
"990","Set1/049a.jpg","79","image-keyboard-response","110","167769","0.0-3.0-1.53","","","Repeat","o","true"
"null","<div style=""font-size:60px;"">+</div>","null","html-keyboard-response","111","168269","0.0-3.0-0.54","","fixation","","",""
"1258","Set1/051a.jpg","79","image-keyboard-response","112","169528","0.0-3.0-1.54","","","Repeat","o","true"
"null","<div style=""font-size:60px;"">+</div>","null","html-keyboard-response","113","170030","0.0-3.0-0.55","","fixation","","",""
"905","Set1/028a.jpg","79","image-keyboard-response","114","170936","0.0-3.0-1.55","","","Set_1_Only","o","true"
"null","<div style=""font-size:60px;"">+</div>","null","html-keyboard-response","115","171437","0.0-3.0-0.56","","fixation","","",""
"987","Set1/047a.jpg","79","image-keyboard-response","116","172426","0.0-3.0-1.56","","","Repeat","o","true"
"null","<div style=""font-size:60px;"">+</div>","null","html-keyboard-response","117","172926","0.0-3.0-0.57","","fixation","","",""
"889","Set1/071a.jpg","79","image-keyboard-response","118","173816","0.0-3.0-1.57","","","Repeat","o","true"
"null","<div style=""font-size:60px;"">+</div>","null","html-keyboard-response","119","174318","0.0-3.0-0.58","","fixation","","",""
"679","Set1/108a.jpg","79","image-keyboard-response","120","174999","0.0-3.0-1.58","","","Update","o","true"
"null","<div style=""font-size:60px;"">+</div>","null","html-keyboard-response","121","175500","0.0-3.0-0.59","","fixation","","",""
"848","Set1/027a.jpg","79","image-keyboard-response","122","176350","0.0-3.0-1.59","","","Set_1_Only","o","true"
"null","<div style=""font-size:60px;"">+</div>","null","html-keyboard-response","123","176850","0.0-3.0-0.60","","fixation","","",""
"804","Set1/044a.jpg","79","image-keyboard-response","124","177656","0.0-3.0-1.60","","","Repeat","o","true"
"null","<div style=""font-size:60px;"">+</div>","null","html-keyboard-response","125","178156","0.0-3.0-0.61","","fixation","","",""
"781","Set1/045a.jpg","79","image-keyboard-response","126","178939","0.0-3.0-1.61","","","Repeat","o","true"
"null","<div style=""font-size:60px;"">+</div>","null","html-keyboard-response","127","179444","0.0-3.0-0.62","","fixation","","",""
"1997","Set1/134a.jpg","78","image-keyboard-response","128","181443","0.0-3.0-1.62","","","Update","n","true"
"null","<div style=""font-size:60px;"">+</div>","null","html-keyboard-response","129","181944","0.0-3.0-0.63","","fixation","","",""
"1199","Set1/158a.jpg","79","image-keyboard-response","130","183145","0.0-3.0-1.63","","","Update","o","true"
"null","<div style=""font-size:60px;"">+</div>","null","html-keyboard-response","131","183645","0.0-3.0-0.64","","fixation","","",""
"929","Set1/106a.jpg","79","image-keyboard-response","132","184575","0.0-3.0-1.64","","","Update","o","true"
"null","<div style=""font-size:60px;"">+</div>","null","html-keyboard-response","133","185077","0.0-3.0-0.65","","fixation","","",""
"1457","Set1/119a.jpg","78","image-keyboard-response","134","186535","0.0-3.0-1.65","","","Update","n","true"
"null","<div style=""font-size:60px;"">+</div>","null","html-keyboard-response","135","187036","0.0-3.0-0.66","","fixation","","",""
"1086","Set1/105a.jpg","79","image-keyboard-response","136","188123","0.0-3.0-1.66","","","Update","o","true"
"null","<div style=""font-size:60px;"">+</div>","null","html-keyboard-response","137","188623","0.0-3.0-0.67","","fixation","","",""
"1163","Set1/119a.jpg","79","image-keyboard-response","138","189788","0.0-3.0-1.67","","","Update","o","true"
"null","<div style=""font-size:60px;"">+</div>","null","html-keyboard-response","139","190288","0.0-3.0-0.68","","fixation","","",""
"678","Set1/148a.jpg","79","image-keyboard-response","140","190968","0.0-3.0-1.68","","","Update","o","true"
"null","<div style=""font-size:60px;"">+</div>","null","html-keyboard-response","141","191468","0.0-3.0-0.69","","fixation","","",""
"1643","Set1/031a.jpg","78","image-keyboard-response","142","193112","0.0-3.0-1.69","","","Set_1_Only","o","false"
"null","<div style=""font-size:60px;"">+</div>","null","html-keyboard-response","143","193613","0.0-3.0-0.70","","fixation","","",""
"1383","Set1/050a.jpg","79","image-keyboard-response","144","194998","0.0-3.0-1.70","","","Repeat","o","true"
"null","<div style=""font-size:60px;"">+</div>","null","html-keyboard-response","145","195498","0.0-3.0-0.71","","fixation","","",""
"931","Set1/082a.jpg","79","image-keyboard-response","146","196431","0.0-3.0-1.71","","","Repeat","o","true"
"null","<div style=""font-size:60px;"">+</div>","null","html-keyboard-response","147","196932","0.0-3.0-0.72","","fixation","","",""
"717","Set1/085a.jpg","79","image-keyboard-response","148","197651","0.0-3.0-1.72","","","Repeat","o","true"
"null","<div style=""font-size:60px;"">+</div>","null","html-keyboard-response","149","198153","0.0-3.0-0.73","","fixation","","",""
"676","Set1/030a.jpg","79","image-keyboard-response","150","198832","0.0-3.0-1.73","","","Set_1_Only","o","true"
"null","<div style=""font-size:60px;"">+</div>","null","html-keyboard-response","151","199332","0.0-3.0-0.74","","fixation","","",""
"821","Set1/160a.jpg","79","image-keyboard-response","152","200154","0.0-3.0-1.74","","","Update","o","true"
"null","<div style=""font-size:60px;"">+</div>","null","html-keyboard-response","153","200657","0.0-3.0-0.75","","fixation","","",""
"760","Set1/134a.jpg","79","image-keyboard-response","154","201419","0.0-3.0-1.75","","","Update","o","true"
"null","<div style=""font-size:60px;"">+</div>","null","html-keyboard-response","155","201920","0.0-3.0-0.76","","fixation","","",""
"843","Set1/146a.jpg","79","image-keyboard-response","156","202764","0.0-3.0-1.76","","","Update","o","true"
"null","<div style=""font-size:60px;"">+</div>","null","html-keyboard-response","157","203265","0.0-3.0-0.77","","fixation","","",""
"932","Set1/107a.jpg","79","image-keyboard-response","158","204199","0.0-3.0-1.77","","","Update","o","true"
"null","<div style=""font-size:60px;"">+</div>","null","html-keyboard-response","159","204699","0.0-3.0-0.78","","fixation","","",""
"868","Set1/079a.jpg","79","image-keyboard-response","160","205568","0.0-3.0-1.78","","","Repeat","o","true"
"null","<div style=""font-size:60px;"">+</div>","null","html-keyboard-response","161","206069","0.0-3.0-0.79","","fixation","","",""
"700","Set1/121a.jpg","79","image-keyboard-response","162","206770","0.0-3.0-1.79","","","Update","o","true"
"null","<div style=""font-size:60px;"">+</div>","null","html-keyboard-response","163","207272","0.0-3.0-0.80","","fixation","","",""
"1437","Set1/095a.jpg","78","image-keyboard-response","164","208711","0.0-3.0-1.80","","","Repeat","n","true"
"null","<div style=""font-size:60px;"">+</div>","null","html-keyboard-response","165","209212","0.0-3.0-0.81","","fixation","","",""
"1015","Set1/041a.jpg","78","image-keyboard-response","166","210228","0.0-3.0-1.81","","","Repeat","n","true"
"null","<div style=""font-size:60px;"">+</div>","null","html-keyboard-response","167","210729","0.0-3.0-0.82","","fixation","","",""
"898","Set1/100a.jpg","78","image-keyboard-response","168","211628","0.0-3.0-1.82","","","Update","n","true"
"null","<div style=""font-size:60px;"">+</div>","null","html-keyboard-response","169","212129","0.0-3.0-0.83","","fixation","","",""
"1056","Set1/036a.jpg","78","image-keyboard-response","170","213187","0.0-3.0-1.83","","","Repeat","n","true"
"null","<div style=""font-size:60px;"">+</div>","null","html-keyboard-response","171","213687","0.0-3.0-0.84","","fixation","","",""
"824","Set1/115a.jpg","78","image-keyboard-response","172","214512","0.0-3.0-1.84","","","Update","n","true"
"null","<div style=""font-size:60px;"">+</div>","null","html-keyboard-response","173","215014","0.0-3.0-0.85","","fixation","","",""
"851","Set1/123a.jpg","78","image-keyboard-response","174","215867","0.0-3.0-1.85","","","Update","n","true"
"null","<div style=""font-size:60px;"">+</div>","null","html-keyboard-response","175","216367","0.0-3.0-0.86","","fixation","","",""
"840","Set1/015a.jpg","78","image-keyboard-response","176","217208","0.0-3.0-1.86","","","Set_1_Only","n","true"
"null","<div style=""font-size:60px;"">+</div>","null","html-keyboard-response","177","217709","0.0-3.0-0.87","","fixation","","",""
"894","Set1/096a.jpg","78","image-keyboard-response","178","218605","0.0-3.0-1.87","","","Repeat","n","true"
"null","<div style=""font-size:60px;"">+</div>","null","html-keyboard-response","179","219116","0.0-3.0-0.88","","fixation","","",""
"970","Set1/110a.jpg","78","image-keyboard-response","180","220088","0.0-3.0-1.88","","","Update","n","true"
"null","<div style=""font-size:60px;"">+</div>","null","html-keyboard-response","181","220589","0.0-3.0-0.89","","fixation","","",""
"1913","Set1/151a.jpg","78","image-keyboard-response","182","222503","0.0-3.0-1.89","","","Update","n","true"
"null","<div style=""font-size:60px;"">+</div>","null","html-keyboard-response","183","223003","0.0-3.0-0.90","","fixation","","",""
"693","Set1/035a.jpg","78","image-keyboard-response","184","223698","0.0-3.0-1.90","","","Repeat","n","true"
"null","<div style=""font-size:60px;"">+</div>","null","html-keyboard-response","185","224198","0.0-3.0-0.91","","fixation","","",""
"804","Set1/026a.jpg","78","image-keyboard-response","186","225003","0.0-3.0-1.91","","","Set_1_Only","n","true"
"null","<div style=""font-size:60px;"">+</div>","null","html-keyboard-response","187","225504","0.0-3.0-0.92","","fixation","","",""
"737","Set1/067a.jpg","78","image-keyboard-response","188","226242","0.0-3.0-1.92","","","Repeat","n","true"
"null","<div style=""font-size:60px;"">+</div>","null","html-keyboard-response","189","226743","0.0-3.0-0.93","","fixation","","",""
"649","Set1/076a.jpg","78","image-keyboard-response","190","227393","0.0-3.0-1.93","","","Repeat","n","true"
"null","<div style=""font-size:60px;"">+</div>","null","html-keyboard-response","191","227895","0.0-3.0-0.94","","fixation","","",""
"6848","Set1/125a.jpg","78","image-keyboard-response","192","234744","0.0-3.0-1.94","","","Update","n","true"
"null","<div style=""font-size:60px;"">+</div>","null","html-keyboard-response","193","235245","0.0-3.0-0.95","","fixation","","",""
"1361","Set1/123a.jpg","79","image-keyboard-response","194","236609","0.0-3.0-1.95","","","Update","o","true"
"null","<div style=""font-size:60px;"">+</div>","null","html-keyboard-response","195","237110","0.0-3.0-0.96","","fixation","","",""
"747","Set1/076a.jpg","79","image-keyboard-response","196","237859","0.0-3.0-1.96","","","Repeat","o","true"
"null","<div style=""font-size:60px;"">+</div>","null","html-keyboard-response","197","238359","0.0-3.0-0.97","","fixation","","",""
"682","Set1/151a.jpg","79","image-keyboard-response","198","239043","0.0-3.0-1.97","","","Update","o","true"
"null","<div style=""font-size:60px;"">+</div>","null","html-keyboard-response","199","239543","0.0-3.0-0.98","","fixation","","",""
"516","Set1/115a.jpg","79","image-keyboard-response","200","240060","0.0-3.0-1.98","","","Update","o","true"
"null","<div style=""font-size:60px;"">+</div>","null","html-keyboard-response","201","240561","0.0-3.0-0.99","","fixation","","",""
"1400","Set1/081a.jpg","78","image-keyboard-response","202","241962","0.0-3.0-1.99","","","Repeat","n","true"
"null","<div style=""font-size:60px;"">+</div>","null","html-keyboard-response","203","242463","0.0-3.0-0.100","","fixation","","",""
"913","Set1/015a.jpg","79","image-keyboard-response","204","243377","0.0-3.0-1.100","","","Set_1_Only","o","true"
"null","<div style=""font-size:60px;"">+</div>","null","html-keyboard-response","205","243878","0.0-3.0-0.101","","fixation","","",""
"558","Set1/035a.jpg","79","image-keyboard-response","206","244438","0.0-3.0-1.101","","","Repeat","o","true"
"null","<div style=""font-size:60px;"">+</div>","null","html-keyboard-response","207","244939","0.0-3.0-0.102","","fixation","","",""
"1907","Set1/014a.jpg","78","image-keyboard-response","208","246847","0.0-3.0-1.102","","","Set_1_Only","n","true"
"null","<div style=""font-size:60px;"">+</div>","null","html-keyboard-response","209","247349","0.0-3.0-0.103","","fixation","","",""
"1745","Set1/152a.jpg","78","image-keyboard-response","210","249097","0.0-3.0-1.103","","","Update","n","true"
"null","<div style=""font-size:60px;"">+</div>","null","html-keyboard-response","211","249597","0.0-3.0-0.104","","fixation","","",""
"1494","Set1/114a.jpg","78","image-keyboard-response","212","251092","0.0-3.0-1.104","","","Update","n","true"
"null","<div style=""font-size:60px;"">+</div>","null","html-keyboard-response","213","251593","0.0-3.0-0.105","","fixation","","",""
"1170","Set1/019a.jpg","78","image-keyboard-response","214","252764","0.0-3.0-1.105","","","Set_1_Only","n","true"
"null","<div style=""font-size:60px;"">+</div>","null","html-keyboard-response","215","253266","0.0-3.0-0.106","","fixation","","",""
"969","Set1/013a.jpg","78","image-keyboard-response","216","254236","0.0-3.0-1.106","","","Set_1_Only","n","true"
"null","<div style=""font-size:60px;"">+</div>","null","html-keyboard-response","217","254737","0.0-3.0-0.107","","fixation","","",""
"686","Set1/053a.jpg","78","image-keyboard-response","218","255424","0.0-3.0-1.107","","","Repeat","n","true"
"null","<div style=""font-size:60px;"">+</div>","null","html-keyboard-response","219","255925","0.0-3.0-0.108","","fixation","","",""
"905","Set1/026a.jpg","78","image-keyboard-response","220","256831","0.0-3.0-1.108","","","Set_1_Only","o","false"
"null","<div style=""font-size:60px;"">+</div>","null","html-keyboard-response","221","257332","0.0-3.0-0.109","","fixation","","",""
"1100","Set1/138a.jpg","78","image-keyboard-response","222","258433","0.0-3.0-1.109","","","Update","n","true"
"null","<div style=""font-size:60px;"">+</div>","null","html-keyboard-response","223","258934","0.0-3.0-0.110","","fixation","","",""
"868","Set1/010a.jpg","78","image-keyboard-response","224","259803","0.0-3.0-1.110","","","Set_1_Only","n","true"
"null","<div style=""font-size:60px;"">+</div>","null","html-keyboard-response","225","260304","0.0-3.0-0.111","","fixation","","",""
"893","Set1/008a.jpg","78","image-keyboard-response","226","261199","0.0-3.0-1.111","","","Set_1_Only","n","true"
"null","<div style=""font-size:60px;"">+</div>","null","html-keyboard-response","227","261702","0.0-3.0-0.112","","fixation","","",""
"1105","Set1/036a.jpg","79","image-keyboard-response","228","262808","0.0-3.0-1.112","","","Repeat","o","true"
"null","<div style=""font-size:60px;"">+</div>","null","html-keyboard-response","229","263310","0.0-3.0-0.113","","fixation","","",""
"858","Set1/081a.jpg","79","image-keyboard-response","230","264170","0.0-3.0-1.113","","","Repeat","o","true"
"null","<div style=""font-size:60px;"">+</div>","null","html-keyboard-response","231","264671","0.0-3.0-0.114","","fixation","","",""
"793","Set1/114a.jpg","79","image-keyboard-response","232","265466","0.0-3.0-1.114","","","Update","o","true"
"null","<div style=""font-size:60px;"">+</div>","null","html-keyboard-response","233","265967","0.0-3.0-0.115","","fixation","","",""
"1306","Set1/156a.jpg","78","image-keyboard-response","234","267275","0.0-3.0-1.115","","","Update","n","true"
"null","<div style=""font-size:60px;"">+</div>","null","html-keyboard-response","235","267775","0.0-3.0-0.116","","fixation","","",""
"855","Set1/056a.jpg","78","image-keyboard-response","236","268631","0.0-3.0-1.116","","","Repeat","n","true"
"null","<div style=""font-size:60px;"">+</div>","null","html-keyboard-response","237","269132","0.0-3.0-0.117","","fixation","","",""
"980","Set1/150a.jpg","78","image-keyboard-response","238","270113","0.0-3.0-1.117","","","Update","n","true"
"null","<div style=""font-size:60px;"">+</div>","null","html-keyboard-response","239","270614","0.0-3.0-0.118","","fixation","","",""
"1269","Set1/152a.jpg","79","image-keyboard-response","240","271885","0.0-3.0-1.118","","","Update","o","true"
"null","<div style=""font-size:60px;"">+</div>","null","html-keyboard-response","241","272385","0.0-3.0-0.119","","fixation","","",""
"1309","Set1/157a.jpg","78","image-keyboard-response","242","273696","0.0-3.0-1.119","","","Update","n","true"
"null","<div style=""font-size:60px;"">+</div>","null","html-keyboard-response","243","274198","0.0-3.0-0.120","","fixation","","",""
"2217","Set1/059a.jpg","78","image-keyboard-response","244","276415","0.0-3.0-1.120","","","Repeat","n","true"
"null","<div style=""font-size:60px;"">+</div>","null","html-keyboard-response","245","276916","0.0-3.0-0.121","","fixation","","",""
"753","Set1/055a.jpg","78","image-keyboard-response","246","277670","0.0-3.0-1.121","","","Repeat","n","true"
"null","<div style=""font-size:60px;"">+</div>","null","html-keyboard-response","247","278171","0.0-3.0-0.122","","fixation","","",""
"1450","Set1/019a.jpg","79","image-keyboard-response","248","279623","0.0-3.0-1.122","","","Set_1_Only","o","true"
"null","<div style=""font-size:60px;"">+</div>","null","html-keyboard-response","249","280124","0.0-3.0-0.123","","fixation","","",""
"4535","Set1/075a.jpg","78","image-keyboard-response","250","284660","0.0-3.0-1.123","","","Repeat","n","true"
"null","<div style=""font-size:60px;"">+</div>","null","html-keyboard-response","251","285162","0.0-3.0-0.124","","fixation","","",""
"959","Set1/048a.jpg","78","image-keyboard-response","252","286124","0.0-3.0-1.124","","","Repeat","n","true"
"null","<div style=""font-size:60px;"">+</div>","null","html-keyboard-response","253","286625","0.0-3.0-0.125","","fixation","","",""
"845","Set1/052a.jpg","78","image-keyboard-response","254","287471","0.0-3.0-1.125","","","Repeat","n","true"
"null","<div style=""font-size:60px;"">+</div>","null","html-keyboard-response","255","287974","0.0-3.0-0.126","","fixation","","",""
"1356","Set1/154a.jpg","78","image-keyboard-response","256","289331","0.0-3.0-1.126","","","Update","n","true"
"null","<div style=""font-size:60px;"">+</div>","null","html-keyboard-response","257","289832","0.0-3.0-0.127","","fixation","","",""
"1029","Set1/041a.jpg","79","image-keyboard-response","258","290863","0.0-3.0-1.127","","","Repeat","o","true"
"null","<div style=""font-size:60px;"">+</div>","null","html-keyboard-response","259","291364","0.0-3.0-0.128","","fixation","","",""
"749","Set1/010a.jpg","79","image-keyboard-response","260","292114","0.0-3.0-1.128","","","Set_1_Only","o","true"
"null","<div style=""font-size:60px;"">+</div>","null","html-keyboard-response","261","292615","0.0-3.0-0.129","","fixation","","",""
"698","Set1/008a.jpg","79","image-keyboard-response","262","293316","0.0-3.0-1.129","","","Set_1_Only","o","true"
"null","<div style=""font-size:60px;"">+</div>","null","html-keyboard-response","263","293816","0.0-3.0-0.130","","fixation","","",""
"580","Set1/154a.jpg","79","image-keyboard-response","264","294398","0.0-3.0-1.130","","","Update","o","true"
"null","<div style=""font-size:60px;"">+</div>","null","html-keyboard-response","265","294898","0.0-3.0-0.131","","fixation","","",""
"784","Set1/048a.jpg","79","image-keyboard-response","266","295683","0.0-3.0-1.131","","","Repeat","o","true"
"null","<div style=""font-size:60px;"">+</div>","null","html-keyboard-response","267","296184","0.0-3.0-0.132","","fixation","","",""
"606","Set1/053a.jpg","79","image-keyboard-response","268","296791","0.0-3.0-1.132","","","Repeat","o","true"
"null","<div style=""font-size:60px;"">+</div>","null","html-keyboard-response","269","297293","0.0-3.0-0.133","","fixation","","",""
"632","Set1/138a.jpg","79","image-keyboard-response","270","297927","0.0-3.0-1.133","","","Update","o","true"
"null","<div style=""font-size:60px;"">+</div>","null","html-keyboard-response","271","298427","0.0-3.0-0.134","","fixation","","",""
"726","Set1/014a.jpg","79","image-keyboard-response","272","299154","0.0-3.0-1.134","","","Set_1_Only","o","true"
"null","<div style=""font-size:60px;"">+</div>","null","html-keyboard-response","273","299670","0.0-3.0-0.135","","fixation","","",""
"774","Set1/075a.jpg","79","image-keyboard-response","274","300446","0.0-3.0-1.135","","","Repeat","o","true"
"null","<div style=""font-size:60px;"">+</div>","null","html-keyboard-response","275","300947","0.0-3.0-0.136","","fixation","","",""
"1572","Set1/111a.jpg","78","image-keyboard-response","276","302520","0.0-3.0-1.136","","","Update","n","true"
"null","<div style=""font-size:60px;"">+</div>","null","html-keyboard-response","277","303021","0.0-3.0-0.137","","fixation","","",""
"606","Set1/056a.jpg","78","image-keyboard-response","278","303628","0.0-3.0-1.137","","","Repeat","o","false"
"null","<div style=""font-size:60px;"">+</div>","null","html-keyboard-response","279","304129","0.0-3.0-0.138","","fixation","","",""
"1007","Set1/003a.jpg","78","image-keyboard-response","280","305138","0.0-3.0-1.138","","","Set_1_Only","n","true"
"null","<div style=""font-size:60px;"">+</div>","null","html-keyboard-response","281","305638","0.0-3.0-0.139","","fixation","","",""
"1334","Set1/125a.jpg","79","image-keyboard-response","282","306974","0.0-3.0-1.139","","","Update","o","true"
"null","<div style=""font-size:60px;"">+</div>","null","html-keyboard-response","283","307475","0.0-3.0-0.140","","fixation","","",""
"1431","Set1/072a.jpg","78","image-keyboard-response","284","308907","0.0-3.0-1.140","","","Repeat","n","true"
"null","<div style=""font-size:60px;"">+</div>","null","html-keyboard-response","285","309408","0.0-3.0-0.141","","fixation","","",""
"1588","Set1/084a.jpg","78","image-keyboard-response","286","310998","0.0-3.0-1.141","","","Repeat","n","true"
"null","<div style=""font-size:60px;"">+</div>","null","html-keyboard-response","287","311498","0.0-3.0-0.142","","fixation","","",""
"1217","Set1/156a.jpg","79","image-keyboard-response","288","312716","0.0-3.0-1.142","","","Update","o","true"
"null","<div style=""font-size:60px;"">+</div>","null","html-keyboard-response","289","313231","0.0-3.0-0.143","","fixation","","",""
"723","Set1/003a.jpg","79","image-keyboard-response","290","313955","0.0-3.0-1.143","","","Set_1_Only","o","true"
"null","<div style=""font-size:60px;"">+</div>","null","html-keyboard-response","291","314456","0.0-3.0-0.144","","fixation","","",""
"699","Set1/059a.jpg","79","image-keyboard-response","292","315156","0.0-3.0-1.144","","","Repeat","o","true"
"null","<div style=""font-size:60px;"">+</div>","null","html-keyboard-response","293","315657","0.0-3.0-0.145","","fixation","","",""
"647","Set1/110a.jpg","79","image-keyboard-response","294","316306","0.0-3.0-1.145","","","Update","o","true"
"null","<div style=""font-size:60px;"">+</div>","null","html-keyboard-response","295","316807","0.0-3.0-0.146","","fixation","","",""
"816","Set1/084a.jpg","79","image-keyboard-response","296","317624","0.0-3.0-1.146","","","Repeat","o","true"
"null","<div style=""font-size:60px;"">+</div>","null","html-keyboard-response","297","318125","0.0-3.0-0.147","","fixation","","",""
"757","Set1/072a.jpg","79","image-keyboard-response","298","318883","0.0-3.0-1.147","","","Repeat","o","true"
"null","<div style=""font-size:60px;"">+</div>","null","html-keyboard-response","299","319384","0.0-3.0-0.148","","fixation","","",""
"1741","Set1/127a.jpg","78","image-keyboard-response","300","321126","0.0-3.0-1.148","","","Update","n","true"
"null","<div style=""font-size:60px;"">+</div>","null","html-keyboard-response","301","321628","0.0-3.0-0.149","","fixation","","",""
"772","Set1/095a.jpg","78","image-keyboard-response","302","322401","0.0-3.0-1.149","","","Repeat","o","false"
"null","<div style=""font-size:60px;"">+</div>","null","html-keyboard-response","303","322902","0.0-3.0-0.150","","fixation","","",""
"1170","Set1/013a.jpg","79","image-keyboard-response","304","324075","0.0-3.0-1.150","","","Set_1_Only","o","true"
"null","<div style=""font-size:60px;"">+</div>","null","html-keyboard-response","305","324577","0.0-3.0-0.151","","fixation","","",""
"865","Set1/067a.jpg","79","image-keyboard-response","306","325443","0.0-3.0-1.151","","","Repeat","o","true"
"null","<div style=""font-size:60px;"">+</div>","null","html-keyboard-response","307","325944","0.0-3.0-0.152","","fixation","","",""
"840","Set1/157a.jpg","79","image-keyboard-response","308","326785","0.0-3.0-1.152","","","Update","o","true"
"null","<div style=""font-size:60px;"">+</div>","null","html-keyboard-response","309","327286","0.0-3.0-0.153","","fixation","","",""
"758","Set1/127a.jpg","79","image-keyboard-response","310","328046","0.0-3.0-1.153","","","Update","o","true"
"null","<div style=""font-size:60px;"">+</div>","null","html-keyboard-response","311","328547","0.0-3.0-0.154","","fixation","","",""
"610","Set1/052a.jpg","79","image-keyboard-response","312","329158","0.0-3.0-1.154","","","Repeat","o","true"
"null","<div style=""font-size:60px;"">+</div>","null","html-keyboard-response","313","329659","0.0-3.0-0.155","","fixation","","",""
"635","Set1/055a.jpg","79","image-keyboard-response","314","330296","0.0-3.0-1.155","","","Repeat","o","true"
"null","<div style=""font-size:60px;"">+</div>","null","html-keyboard-response","315","330796","0.0-3.0-0.156","","fixation","","",""
"969","Set1/111a.jpg","79","image-keyboard-response","316","331767","0.0-3.0-1.156","","","Update","o","true"
"null","<div style=""font-size:60px;"">+</div>","null","html-keyboard-response","317","332267","0.0-3.0-0.157","","fixation","","",""
"782","Set1/150a.jpg","79","image-keyboard-response","318","333051","0.0-3.0-1.157","","","Update","o","true"
"null","<div style=""font-size:60px;"">+</div>","null","html-keyboard-response","319","333554","0.0-3.0-0.158","","fixation","","",""
"693","Set1/100a.jpg","79","image-keyboard-response","320","334249","0.0-3.0-1.158","","","Update","o","true"
"null","<div style=""font-size:60px;"">+</div>","null","html-keyboard-response","321","334749","0.0-3.0-0.159","","fixation","","",""
"1220","Set1/096a.jpg","79","image-keyboard-response","322","335970","0.0-3.0-1.159","","","Repeat","o","true"
"null","<div style=""font-size:60px;"">+</div>","null","html-keyboard-response","323","336471","0.0-3.0-0.160","","fixation","","",""
"1695","Set1/159a.jpg","78","image-keyboard-response","324","338167","0.0-3.0-1.160","","","Update","n","true"
"null","<div style=""font-size:60px;"">+</div>","null","html-keyboard-response","325","338668","0.0-3.0-0.161","","fixation","","",""
"1217","Set1/074a.jpg","78","image-keyboard-response","326","339887","0.0-3.0-1.161","","","Repeat","n","true"
"null","<div style=""font-size:60px;"">+</div>","null","html-keyboard-response","327","340387","0.0-3.0-0.162","","fixation","","",""
"1190","Set1/060a.jpg","78","image-keyboard-response","328","341579","0.0-3.0-1.162","","","Repeat","n","true"
"null","<div style=""font-size:60px;"">+</div>","null","html-keyboard-response","329","342080","0.0-3.0-0.163","","fixation","","",""
"1894","Set1/062a.jpg","78","image-keyboard-response","330","343976","0.0-3.0-1.163","","","Repeat","n","true"
"null","<div style=""font-size:60px;"">+</div>","null","html-keyboard-response","331","344476","0.0-3.0-0.164","","fixation","","",""
"1166","Set1/155a.jpg","78","image-keyboard-response","332","345643","0.0-3.0-1.164","","","Update","n","true"
"null","<div style=""font-size:60px;"">+</div>","null","html-keyboard-response","333","346144","0.0-3.0-0.165","","fixation","","",""
"772","Set1/117a.jpg","78","image-keyboard-response","334","346917","0.0-3.0-1.165","","","Update","n","true"
"null","<div style=""font-size:60px;"">+</div>","null","html-keyboard-response","335","347418","0.0-3.0-0.166","","fixation","","",""
"1833","Set1/004a.jpg","78","image-keyboard-response","336","349252","0.0-3.0-1.166","","","Set_1_Only","n","true"
"null","<div style=""font-size:60px;"">+</div>","null","html-keyboard-response","337","349753","0.0-3.0-0.167","","fixation","","",""
"1994","Set1/097a.jpg","78","image-keyboard-response","338","351748","0.0-3.0-1.167","","","Update","n","true"
"null","<div style=""font-size:60px;"">+</div>","null","html-keyboard-response","339","352249","0.0-3.0-0.168","","fixation","","",""
"1652","Set1/130a.jpg","78","image-keyboard-response","340","353902","0.0-3.0-1.168","","","Update","n","true"
"null","<div style=""font-size:60px;"">+</div>","null","html-keyboard-response","341","354404","0.0-3.0-0.169","","fixation","","",""
"1106","Set1/068a.jpg","78","image-keyboard-response","342","355510","0.0-3.0-1.169","","","Repeat","n","true"
"null","<div style=""font-size:60px;"">+</div>","null","html-keyboard-response","343","356011","0.0-3.0-0.170","","fixation","","",""
"818","Set1/137a.jpg","78","image-keyboard-response","344","356830","0.0-3.0-1.170","","","Update","n","true"
"null","<div style=""font-size:60px;"">+</div>","null","html-keyboard-response","345","357331","0.0-3.0-0.171","","fixation","","",""
"1273","Set1/097a.jpg","79","image-keyboard-response","346","358606","0.0-3.0-1.171","","","Update","o","true"
"null","<div style=""font-size:60px;"">+</div>","null","html-keyboard-response","347","359108","0.0-3.0-0.172","","fixation","","",""
"1955","Set1/147a.jpg","78","image-keyboard-response","348","361064","0.0-3.0-1.172","","","Update","n","true"
"null","<div style=""font-size:60px;"">+</div>","null","html-keyboard-response","349","361565","0.0-3.0-0.173","","fixation","","",""
"907","Set1/155a.jpg","79","image-keyboard-response","350","362475","0.0-3.0-1.173","","","Update","o","true"
"null","<div style=""font-size:60px;"">+</div>","null","html-keyboard-response","351","362976","0.0-3.0-0.174","","fixation","","",""
"8998","Set1/002a.jpg","79","image-keyboard-response","352","371975","0.0-3.0-1.174","","","Set_1_Only","n","false"
"null","<div style=""font-size:60px;"">+</div>","null","html-keyboard-response","353","372476","0.0-3.0-0.175","","fixation","","",""
"2402","Set1/033a.jpg","78","image-keyboard-response","354","374880","0.0-3.0-1.175","","","Repeat","n","true"
"null","<div style=""font-size:60px;"">+</div>","null","html-keyboard-response","355","375381","0.0-3.0-0.176","","fixation","","",""
"1413","Set1/102a.jpg","78","image-keyboard-response","356","376795","0.0-3.0-1.176","","","Update","n","true"
"null","<div style=""font-size:60px;"">+</div>","null","html-keyboard-response","357","377296","0.0-3.0-0.177","","fixation","","",""
"1143","Set1/057a.jpg","78","image-keyboard-response","358","378440","0.0-3.0-1.177","","","Repeat","n","true"
"null","<div style=""font-size:60px;"">+</div>","null","html-keyboard-response","359","378940","0.0-3.0-0.178","","fixation","","",""
"1360","Set1/147a.jpg","79","image-keyboard-response","360","380302","0.0-3.0-1.178","","","Update","o","true"
"null","<div style=""font-size:60px;"">+</div>","null","html-keyboard-response","361","380803","0.0-3.0-0.179","","fixation","","",""
"945","Set1/057a.jpg","79","image-keyboard-response","362","381749","0.0-3.0-1.179","","","Repeat","o","true"
"null","<div style=""font-size:60px;"">+</div>","null","html-keyboard-response","363","382266","0.0-3.0-0.180","","fixation","","",""
"1375","Set1/131a.jpg","78","image-keyboard-response","364","383642","0.0-3.0-1.180","","","Update","n","true"
"null","<div style=""font-size:60px;"">+</div>","null","html-keyboard-response","365","384143","0.0-3.0-0.181","","fixation","","",""
"1182","Set1/032a.jpg","78","image-keyboard-response","366","385327","0.0-3.0-1.181","","","Set_1_Only","n","true"
"null","<div style=""font-size:60px;"">+</div>","null","html-keyboard-response","367","385829","0.0-3.0-0.182","","fixation","","",""
"1015","Set1/065a.jpg","78","image-keyboard-response","368","386845","0.0-3.0-1.182","","","Repeat","n","true"
"null","<div style=""font-size:60px;"">+</div>","null","html-keyboard-response","369","387347","0.0-3.0-0.183","","fixation","","",""
"1886","Set1/149a.jpg","78","image-keyboard-response","370","389234","0.0-3.0-1.183","","","Update","n","true"
"null","<div style=""font-size:60px;"">+</div>","null","html-keyboard-response","371","389735","0.0-3.0-0.184","","fixation","","",""
"1139","Set1/065a.jpg","78","image-keyboard-response","372","390876","0.0-3.0-1.184","","","Repeat","o","false"
"null","<div style=""font-size:60px;"">+</div>","null","html-keyboard-response","373","391376","0.0-3.0-0.185","","fixation","","",""
"846","Set1/089a.jpg","78","image-keyboard-response","374","392223","0.0-3.0-1.185","","","Repeat","n","true"
"null","<div style=""font-size:60px;"">+</div>","null","html-keyboard-response","375","392724","0.0-3.0-0.186","","fixation","","",""
"1620","Set1/144a.jpg","78","image-keyboard-response","376","394345","0.0-3.0-1.186","","","Update","n","true"
"null","<div style=""font-size:60px;"">+</div>","null","html-keyboard-response","377","394846","0.0-3.0-0.187","","fixation","","",""
"2324","Set1/069a.jpg","78","image-keyboard-response","378","397171","0.0-3.0-1.187","","","Repeat","n","true"
"null","<div style=""font-size:60px;"">+</div>","null","html-keyboard-response","379","397674","0.0-3.0-0.188","","fixation","","",""
"3796","Set1/129a.jpg","78","image-keyboard-response","380","401470","0.0-3.0-1.188","","","Update","n","true"
"null","<div style=""font-size:60px;"">+</div>","null","html-keyboard-response","381","401971","0.0-3.0-0.189","","fixation","","",""
"1222","Set1/032a.jpg","79","image-keyboard-response","382","403197","0.0-3.0-1.189","","","Set_1_Only","o","true"
"null","<div style=""font-size:60px;"">+</div>","null","html-keyboard-response","383","403699","0.0-3.0-0.190","","fixation","","",""
"1887","Set1/024a.jpg","78","image-keyboard-response","384","405587","0.0-3.0-1.190","","","Set_1_Only","n","true"
"null","<div style=""font-size:60px;"">+</div>","null","html-keyboard-response","385","406088","0.0-3.0-0.191","","fixation","","",""
"1420","Set1/078a.jpg","78","image-keyboard-response","386","407509","0.0-3.0-1.191","","","Repeat","n","true"
"null","<div style=""font-size:60px;"">+</div>","null","html-keyboard-response","387","408010","0.0-3.0-0.192","","fixation","","",""
"1150","Set1/103a.jpg","78","image-keyboard-response","388","409161","0.0-3.0-1.192","","","Update","n","true"
"null","<div style=""font-size:60px;"">+</div>","null","html-keyboard-response","389","409662","0.0-3.0-0.193","","fixation","","",""
"1183","Set1/130a.jpg","79","image-keyboard-response","390","410846","0.0-3.0-1.193","","","Update","o","true"
"null","<div style=""font-size:60px;"">+</div>","null","html-keyboard-response","391","411347","0.0-3.0-0.194","","fixation","","",""
"1551","Set1/022a.jpg","78","image-keyboard-response","392","412899","0.0-3.0-1.194","","","Set_1_Only","n","true"
"null","<div style=""font-size:60px;"">+</div>","null","html-keyboard-response","393","413401","0.0-3.0-0.195","","fixation","","",""
"2098","Set1/124a.jpg","78","image-keyboard-response","394","415500","0.0-3.0-1.195","","","Update","n","true"
"null","<div style=""font-size:60px;"">+</div>","null","html-keyboard-response","395","416001","0.0-3.0-0.196","","fixation","","",""
"1142","Set1/068a.jpg","79","image-keyboard-response","396","417145","0.0-3.0-1.196","","","Repeat","o","true"
"null","<div style=""font-size:60px;"">+</div>","null","html-keyboard-response","397","417645","0.0-3.0-0.197","","fixation","","",""
"649","Set1/078a.jpg","79","image-keyboard-response","398","418296","0.0-3.0-1.197","","","Repeat","o","true"
"null","<div style=""font-size:60px;"">+</div>","null","html-keyboard-response","399","418796","0.0-3.0-0.198","","fixation","","",""
"580","Set1/137a.jpg","79","image-keyboard-response","400","419377","0.0-3.0-1.198","","","Update","o","true"
"null","<div style=""font-size:60px;"">+</div>","null","html-keyboard-response","401","419878","0.0-3.0-0.199","","fixation","","",""
"1718","Set1/118a.jpg","78","image-keyboard-response","402","421598","0.0-3.0-1.199","","","Update","n","true"
"null","<div style=""font-size:60px;"">+</div>","null","html-keyboard-response","403","422099","0.0-3.0-0.200","","fixation","","",""
"978","Set1/149a.jpg","79","image-keyboard-response","404","423079","0.0-3.0-1.200","","","Update","o","true"
"null","<div style=""font-size:60px;"">+</div>","null","html-keyboard-response","405","423580","0.0-3.0-0.201","","fixation","","",""
"1294","Set1/002a.jpg","78","image-keyboard-response","406","424876","0.0-3.0-1.201","","","Set_1_Only","o","false"
"null","<div style=""font-size:60px;"">+</div>","null","html-keyboard-response","407","425378","0.0-3.0-0.202","","fixation","","",""
"975","Set1/103a.jpg","79","image-keyboard-response","408","426354","0.0-3.0-1.202","","","Update","o","true"
"null","<div style=""font-size:60px;"">+</div>","null","html-keyboard-response","409","426855","0.0-3.0-0.203","","fixation","","",""
"1381","Set1/012a.jpg","78","image-keyboard-response","410","428237","0.0-3.0-1.203","","","Set_1_Only","n","true"
"null","<div style=""font-size:60px;"">+</div>","null","html-keyboard-response","411","428738","0.0-3.0-0.204","","fixation","","",""
"3226","Set1/104a.jpg","78","image-keyboard-response","412","431966","0.0-3.0-1.204","","","Update","n","true"
"null","<div style=""font-size:60px;"">+</div>","null","html-keyboard-response","413","432468","0.0-3.0-0.205","","fixation","","",""
"2305","Set1/080a.jpg","78","image-keyboard-response","414","434783","0.0-3.0-1.205","","","Repeat","n","true"
"null","<div style=""font-size:60px;"">+</div>","null","html-keyboard-response","415","435284","0.0-3.0-0.206","","fixation","","",""
"1725","Set1/040a.jpg","78","image-keyboard-response","416","437012","0.0-3.0-1.206","","","Repeat","n","true"
"null","<div style=""font-size:60px;"">+</div>","null","html-keyboard-response","417","437518","0.0-3.0-0.207","","fixation","","",""
"1090","Set1/145a.jpg","78","image-keyboard-response","418","438609","0.0-3.0-1.207","","","Update","n","true"
"null","<div style=""font-size:60px;"">+</div>","null","html-keyboard-response","419","439110","0.0-3.0-0.208","","fixation","","",""
"1540","Set1/004a.jpg","79","image-keyboard-response","420","440651","0.0-3.0-1.208","","","Set_1_Only","o","true"
"null","<div style=""font-size:60px;"">+</div>","null","html-keyboard-response","421","441153","0.0-3.0-0.209","","fixation","","",""
"1769","Set1/073a.jpg","78","image-keyboard-response","422","442923","0.0-3.0-1.209","","","Repeat","n","true"
"null","<div style=""font-size:60px;"">+</div>","null","html-keyboard-response","423","443424","0.0-3.0-0.210","","fixation","","",""
"1062","Set1/144a.jpg","79","image-keyboard-response","424","444487","0.0-3.0-1.210","","","Update","o","true"
"null","<div style=""font-size:60px;"">+</div>","null","html-keyboard-response","425","444988","0.0-3.0-0.211","","fixation","","",""
"799","Set1/145a.jpg","79","image-keyboard-response","426","445789","0.0-3.0-1.211","","","Update","o","true"
"null","<div style=""font-size:60px;"">+</div>","null","html-keyboard-response","427","446290","0.0-3.0-0.212","","fixation","","",""
"669","Set1/124a.jpg","79","image-keyboard-response","428","446962","0.0-3.0-1.212","","","Update","o","true"
"null","<div style=""font-size:60px;"">+</div>","null","html-keyboard-response","429","447463","0.0-3.0-0.213","","fixation","","",""
"664","Set1/040a.jpg","79","image-keyboard-response","430","448128","0.0-3.0-1.213","","","Repeat","o","true"
"null","<div style=""font-size:60px;"">+</div>","null","html-keyboard-response","431","448629","0.0-3.0-0.214","","fixation","","",""
"864","Set1/069a.jpg","79","image-keyboard-response","432","449494","0.0-3.0-1.214","","","Repeat","o","true"
"null","<div style=""font-size:60px;"">+</div>","null","html-keyboard-response","433","449996","0.0-3.0-0.215","","fixation","","",""
"1598","Set1/143a.jpg","78","image-keyboard-response","434","451595","0.0-3.0-1.215","","","Update","n","true"
"null","<div style=""font-size:60px;"">+</div>","null","html-keyboard-response","435","452096","0.0-3.0-0.216","","fixation","","",""
"1472","Set1/024a.jpg","79","image-keyboard-response","436","453569","0.0-3.0-1.216","","","Set_1_Only","o","true"
"null","<div style=""font-size:60px;"">+</div>","null","html-keyboard-response","437","454070","0.0-3.0-0.217","","fixation","","",""
"1028","Set1/131a.jpg","79","image-keyboard-response","438","455100","0.0-3.0-1.217","","","Update","o","true"
"null","<div style=""font-size:60px;"">+</div>","null","html-keyboard-response","439","455600","0.0-3.0-0.218","","fixation","","",""
"1547","Set1/094a.jpg","78","image-keyboard-response","440","457148","0.0-3.0-1.218","","","Repeat","n","true"
"null","<div style=""font-size:60px;"">+</div>","null","html-keyboard-response","441","457650","0.0-3.0-0.219","","fixation","","",""
"1230","Set1/104a.jpg","79","image-keyboard-response","442","458882","0.0-3.0-1.219","","","Update","o","true"
"null","<div style=""font-size:60px;"">+</div>","null","html-keyboard-response","443","459382","0.0-3.0-0.220","","fixation","","",""
"723","Set1/080a.jpg","79","image-keyboard-response","444","460107","0.0-3.0-1.220","","","Repeat","o","true"
"null","<div style=""font-size:60px;"">+</div>","null","html-keyboard-response","445","460608","0.0-3.0-0.221","","fixation","","",""
"684","Set1/060a.jpg","79","image-keyboard-response","446","461294","0.0-3.0-1.221","","","Repeat","o","true"
"null","<div style=""font-size:60px;"">+</div>","null","html-keyboard-response","447","461796","0.0-3.0-0.222","","fixation","","",""
"702","Set1/129a.jpg","79","image-keyboard-response","448","462502","0.0-3.0-1.222","","","Update","o","true"
"null","<div style=""font-size:60px;"">+</div>","null","html-keyboard-response","449","463004","0.0-3.0-0.223","","fixation","","",""
"727","Set1/089a.jpg","79","image-keyboard-response","450","463732","0.0-3.0-1.223","","","Repeat","o","true"
"null","<div style=""font-size:60px;"">+</div>","null","html-keyboard-response","451","464234","0.0-3.0-0.224","","fixation","","",""
"793","Set1/159a.jpg","79","image-keyboard-response","452","465029","0.0-3.0-1.224","","","Update","o","true"
"null","<div style=""font-size:60px;"">+</div>","null","html-keyboard-response","453","465529","0.0-3.0-0.225","","fixation","","",""
"1767","Set1/135a.jpg","78","image-keyboard-response","454","467298","0.0-3.0-1.225","","","Update","n","true"
"null","<div style=""font-size:60px;"">+</div>","null","html-keyboard-response","455","467799","0.0-3.0-0.226","","fixation","","",""
"1078","Set1/116a.jpg","78","image-keyboard-response","456","468879","0.0-3.0-1.226","","","Update","n","true"
"null","<div style=""font-size:60px;"">+</div>","null","html-keyboard-response","457","469379","0.0-3.0-0.227","","fixation","","",""
"682","Set1/102a.jpg","78","image-keyboard-response","458","470064","0.0-3.0-1.227","","","Update","o","false"
"null","<div style=""font-size:60px;"">+</div>","null","html-keyboard-response","459","470565","0.0-3.0-0.228","","fixation","","",""
"1155","Set1/022a.jpg","79","image-keyboard-response","460","471722","0.0-3.0-1.228","","","Set_1_Only","o","true"
"null","<div style=""font-size:60px;"">+</div>","null","html-keyboard-response","461","472222","0.0-3.0-0.229","","fixation","","",""
"660","Set1/094a.jpg","79","image-keyboard-response","462","472884","0.0-3.0-1.229","","","Repeat","o","true"
"null","<div style=""font-size:60px;"">+</div>","null","html-keyboard-response","463","473384","0.0-3.0-0.230","","fixation","","",""
"795","Set1/118a.jpg","79","image-keyboard-response","464","474180","0.0-3.0-1.230","","","Update","o","true"
"null","<div style=""font-size:60px;"">+</div>","null","html-keyboard-response","465","474681","0.0-3.0-0.231","","fixation","","",""
"692","Set1/033a.jpg","79","image-keyboard-response","466","475374","0.0-3.0-1.231","","","Repeat","o","true"
"null","<div style=""font-size:60px;"">+</div>","null","html-keyboard-response","467","475875","0.0-3.0-0.232","","fixation","","",""
"752","Set1/117a.jpg","79","image-keyboard-response","468","476629","0.0-3.0-1.232","","","Update","o","true"
"null","<div style=""font-size:60px;"">+</div>","null","html-keyboard-response","469","477129","0.0-3.0-0.233","","fixation","","",""
"899","Set1/135a.jpg","79","image-keyboard-response","470","478030","0.0-3.0-1.233","","","Update","o","true"
"null","<div style=""font-size:60px;"">+</div>","null","html-keyboard-response","471","478531","0.0-3.0-0.234","","fixation","","",""
"983","Set1/116a.jpg","79","image-keyboard-response","472","479515","0.0-3.0-1.234","","","Update","o","true"
"null","<div style=""font-size:60px;"">+</div>","null","html-keyboard-response","473","480017","0.0-3.0-0.235","","fixation","","",""
"816","Set1/143a.jpg","79","image-keyboard-response","474","480835","0.0-3.0-1.235","","","Update","o","true"
"null","<div style=""font-size:60px;"">+</div>","null","html-keyboard-response","475","481336","0.0-3.0-0.236","","fixation","","",""
"725","Set1/074a.jpg","79","image-keyboard-response","476","482063","0.0-3.0-1.236","","","Repeat","o","true"
"null","<div style=""font-size:60px;"">+</div>","null","html-keyboard-response","477","482578","0.0-3.0-0.237","","fixation","","",""
"673","Set1/012a.jpg","79","image-keyboard-response","478","483253","0.0-3.0-1.237","","","Set_1_Only","o","true"
"null","<div style=""font-size:60px;"">+</div>","null","html-keyboard-response","479","483754","0.0-3.0-0.238","","fixation","","",""
"996","Set1/062a.jpg","79","image-keyboard-response","480","484752","0.0-3.0-1.238","","","Repeat","o","true"
"null","<div style=""font-size:60px;"">+</div>","null","html-keyboard-response","481","485253","0.0-3.0-0.239","","fixation","","",""
"671","Set1/073a.jpg","79","image-keyboard-response","482","485925","0.0-3.0-1.239","","","Repeat","o","true"
"null","<div style=""font-size:60px;"">+</div>","null","html-keyboard-response","483","486427","0.0-3.0-0.240","","fixation","","",""
"3729","Set1/029a.jpg","78","image-keyboard-response","484","490157","0.0-3.0-1.240","","","Set_1_Only","n","true"
"null","<div style=""font-size:60px;"">+</div>","null","html-keyboard-response","485","490671","0.0-3.0-0.241","","fixation","","",""
"1874","Set1/098a.jpg","78","image-keyboard-response","486","492547","0.0-3.0-1.241","","","Update","n","true"
"null","<div style=""font-size:60px;"">+</div>","null","html-keyboard-response","487","493048","0.0-3.0-0.242","","fixation","","",""
"1086","Set1/086a.jpg","78","image-keyboard-response","488","494136","0.0-3.0-1.242","","","Repeat","n","true"
"null","<div style=""font-size:60px;"">+</div>","null","html-keyboard-response","489","494637","0.0-3.0-0.243","","fixation","","",""
"996","Set1/070a.jpg","78","image-keyboard-response","490","495634","0.0-3.0-1.243","","","Repeat","n","true"
"null","<div style=""font-size:60px;"">+</div>","null","html-keyboard-response","491","496136","0.0-3.0-0.244","","fixation","","",""
"1222","Set1/091a.jpg","78","image-keyboard-response","492","497359","0.0-3.0-1.244","","","Repeat","n","true"
"null","<div style=""font-size:60px;"">+</div>","null","html-keyboard-response","493","497860","0.0-3.0-0.245","","fixation","","",""
"973","Set1/043a.jpg","78","image-keyboard-response","494","498834","0.0-3.0-1.245","","","Repeat","n","true"
"null","<div style=""font-size:60px;"">+</div>","null","html-keyboard-response","495","499335","0.0-3.0-0.246","","fixation","","",""
"1148","Set1/083a.jpg","78","image-keyboard-response","496","500485","0.0-3.0-1.246","","","Repeat","n","true"
"null","<div style=""font-size:60px;"">+</div>","null","html-keyboard-response","497","500985","0.0-3.0-0.247","","fixation","","",""
"1030","Set1/011a.jpg","78","image-keyboard-response","498","502016","0.0-3.0-1.247","","","Set_1_Only","n","true"
"null","<div style=""font-size:60px;"">+</div>","null","html-keyboard-response","499","502518","0.0-3.0-0.248","","fixation","","",""
"1042","Set1/142a.jpg","78","image-keyboard-response","500","503561","0.0-3.0-1.248","","","Update","n","true"
"null","<div style=""font-size:60px;"">+</div>","null","html-keyboard-response","501","504062","0.0-3.0-0.249","","fixation","","",""
"831","Set1/061a.jpg","78","image-keyboard-response","502","504894","0.0-3.0-1.249","","","Repeat","n","true"
"null","<div style=""font-size:60px;"">+</div>","null","html-keyboard-response","503","505395","0.0-3.0-0.250","","fixation","","",""
"1748","Set1/007a.jpg","78","image-keyboard-response","504","507144","0.0-3.0-1.250","","","Set_1_Only","n","true"
"null","<div style=""font-size:60px;"">+</div>","null","html-keyboard-response","505","507645","0.0-3.0-0.251","","fixation","","",""
"626","Set1/039a.jpg","78","image-keyboard-response","506","508272","0.0-3.0-1.251","","","Repeat","n","true"
"null","<div style=""font-size:60px;"">+</div>","null","html-keyboard-response","507","508774","0.0-3.0-0.252","","fixation","","",""
"1797","Set1/023a.jpg","78","image-keyboard-response","508","510572","0.0-3.0-1.252","","","Set_1_Only","n","true"
"null","<div style=""font-size:60px;"">+</div>","null","html-keyboard-response","509","511074","0.0-3.0-0.253","","fixation","","",""
"1046","Set1/001a.jpg","78","image-keyboard-response","510","512121","0.0-3.0-1.253","","","Set_1_Only","n","true"
"null","<div style=""font-size:60px;"">+</div>","null","html-keyboard-response","511","512622","0.0-3.0-0.254","","fixation","","",""
"1795","Set1/038a.jpg","78","image-keyboard-response","512","514420","0.0-3.0-1.254","","","Repeat","n","true"
"null","<div style=""font-size:60px;"">+</div>","null","html-keyboard-response","513","514921","0.0-3.0-0.255","","fixation","","",""
"831","Set1/126a.jpg","78","image-keyboard-response","514","515755","0.0-3.0-1.255","","","Update","n","true"
"null","<div style=""font-size:60px;"">+</div>","null","html-keyboard-response","515","516256","0.0-3.0-0.256","","fixation","","",""
"1863","Set1/021a.jpg","78","image-keyboard-response","516","518122","0.0-3.0-1.256","","","Set_1_Only","n","true"
"null","<div style=""font-size:60px;"">+</div>","null","html-keyboard-response","517","518624","0.0-3.0-0.257","","fixation","","",""
"789","Set1/109a.jpg","78","image-keyboard-response","518","519415","0.0-3.0-1.257","","","Update","n","true"
"null","<div style=""font-size:60px;"">+</div>","null","html-keyboard-response","519","519915","0.0-3.0-0.258","","fixation","","",""
"1098","Set1/099a.jpg","78","image-keyboard-response","520","521014","0.0-3.0-1.258","","","Update","n","true"
"null","<div style=""font-size:60px;"">+</div>","null","html-keyboard-response","521","521515","0.0-3.0-0.259","","fixation","","",""
"829","Set1/122a.jpg","78","image-keyboard-response","522","522345","0.0-3.0-1.259","","","Update","n","true"
"null","<div style=""font-size:60px;"">+</div>","null","html-keyboard-response","523","522846","0.0-3.0-0.260","","fixation","","",""
"1293","Set1/023a.jpg","79","image-keyboard-response","524","524141","0.0-3.0-1.260","","","Set_1_Only","o","true"
"null","<div style=""font-size:60px;"">+</div>","null","html-keyboard-response","525","524642","0.0-3.0-0.261","","fixation","","",""
"2543","Set1/017a.jpg","78","image-keyboard-response","526","527186","0.0-3.0-1.261","","","Set_1_Only","n","true"
"null","<div style=""font-size:60px;"">+</div>","null","html-keyboard-response","527","527688","0.0-3.0-0.262","","fixation","","",""
"1485","Set1/132a.jpg","78","image-keyboard-response","528","529176","0.0-3.0-1.262","","","Update","n","true"
"null","<div style=""font-size:60px;"">+</div>","null","html-keyboard-response","529","529677","0.0-3.0-0.263","","fixation","","",""
"2934","Set1/042a.jpg","78","image-keyboard-response","530","532612","0.0-3.0-1.263","","","Repeat","n","true"
"null","<div style=""font-size:60px;"">+</div>","null","html-keyboard-response","531","533114","0.0-3.0-0.264","","fixation","","",""
"1069","Set1/087a.jpg","78","image-keyboard-response","532","534186","0.0-3.0-1.264","","","Repeat","n","true"
"null","<div style=""font-size:60px;"">+</div>","null","html-keyboard-response","533","534686","0.0-3.0-0.265","","fixation","","",""
"809","Set1/101a.jpg","78","image-keyboard-response","534","535497","0.0-3.0-1.265","","","Update","n","true"
"null","<div style=""font-size:60px;"">+</div>","null","html-keyboard-response","535","535998","0.0-3.0-0.266","","fixation","","",""
"1502","Set1/066a.jpg","78","image-keyboard-response","536","537501","0.0-3.0-1.266","","","Repeat","n","true"
"null","<div style=""font-size:60px;"">+</div>","null","html-keyboard-response","537","538002","0.0-3.0-0.267","","fixation","","",""
"1141","Set1/091a.jpg","79","image-keyboard-response","538","539145","0.0-3.0-1.267","","","Repeat","o","true"
"null","<div style=""font-size:60px;"">+</div>","null","html-keyboard-response","539","539647","0.0-3.0-0.268","","fixation","","",""
"1573","Set1/077a.jpg","78","image-keyboard-response","540","541221","0.0-3.0-1.268","","","Repeat","n","true"
"null","<div style=""font-size:60px;"">+</div>","null","html-keyboard-response","541","541722","0.0-3.0-0.269","","fixation","","",""
"702","Set1/042a.jpg","79","image-keyboard-response","542","542426","0.0-3.0-1.269","","","Repeat","o","true"
"null","<div style=""font-size:60px;"">+</div>","null","html-keyboard-response","543","542927","0.0-3.0-0.270","","fixation","","",""
"1316","Set1/018a.jpg","78","image-keyboard-response","544","544245","0.0-3.0-1.270","","","Set_1_Only","n","true"
"null","<div style=""font-size:60px;"">+</div>","null","html-keyboard-response","545","544745","0.0-3.0-0.271","","fixation","","",""
"1475","Set1/058a.jpg","78","image-keyboard-response","546","546222","0.0-3.0-1.271","","","Repeat","n","true"
"null","<div style=""font-size:60px;"">+</div>","null","html-keyboard-response","547","546723","0.0-3.0-0.272","","fixation","","",""
"994","Set1/132a.jpg","79","image-keyboard-response","548","547718","0.0-3.0-1.272","","","Update","o","true"
"null","<div style=""font-size:60px;"">+</div>","null","html-keyboard-response","549","548219","0.0-3.0-0.273","","fixation","","",""
"585","Set1/038a.jpg","79","image-keyboard-response","550","548806","0.0-3.0-1.273","","","Repeat","o","true"
"null","<div style=""font-size:60px;"">+</div>","null","html-keyboard-response","551","549309","0.0-3.0-0.274","","fixation","","",""
"588","Set1/066a.jpg","79","image-keyboard-response","552","549899","0.0-3.0-1.274","","","Repeat","o","true"
"null","<div style=""font-size:60px;"">+</div>","null","html-keyboard-response","553","550400","0.0-3.0-0.275","","fixation","","",""
"581","Set1/099a.jpg","79","image-keyboard-response","554","550982","0.0-3.0-1.275","","","Update","o","true"
"null","<div style=""font-size:60px;"">+</div>","null","html-keyboard-response","555","551483","0.0-3.0-0.276","","fixation","","",""
"565","Set1/126a.jpg","79","image-keyboard-response","556","552050","0.0-3.0-1.276","","","Update","o","true"
"null","<div style=""font-size:60px;"">+</div>","null","html-keyboard-response","557","552550","0.0-3.0-0.277","","fixation","","",""
"1848","Set1/009a.jpg","78","image-keyboard-response","558","554400","0.0-3.0-1.277","","","Set_1_Only","n","true"
"null","<div style=""font-size:60px;"">+</div>","null","html-keyboard-response","559","554902","0.0-3.0-0.278","","fixation","","",""
"1387","Set1/046a.jpg","78","image-keyboard-response","560","556292","0.0-3.0-1.278","","","Repeat","n","true"
"null","<div style=""font-size:60px;"">+</div>","null","html-keyboard-response","561","556792","0.0-3.0-0.279","","fixation","","",""
"1155","Set1/039a.jpg","79","image-keyboard-response","562","557948","0.0-3.0-1.279","","","Repeat","o","true"
"null","<div style=""font-size:60px;"">+</div>","null","html-keyboard-response","563","558450","0.0-3.0-0.280","","fixation","","",""
"608","Set1/001a.jpg","79","image-keyboard-response","564","559060","0.0-3.0-1.280","","","Set_1_Only","o","true"
"null","<div style=""font-size:60px;"">+</div>","null","html-keyboard-response","565","559560","0.0-3.0-0.281","","fixation","","",""
"854","Set1/122a.jpg","79","image-keyboard-response","566","560416","0.0-3.0-1.281","","","Update","o","true"
"null","<div style=""font-size:60px;"">+</div>","null","html-keyboard-response","567","560917","0.0-3.0-0.282","","fixation","","",""
"589","Set1/086a.jpg","79","image-keyboard-response","568","561508","0.0-3.0-1.282","","","Repeat","o","true"
"null","<div style=""font-size:60px;"">+</div>","null","html-keyboard-response","569","562010","0.0-3.0-0.283","","fixation","","",""
"528","Set1/046a.jpg","79","image-keyboard-response","570","562539","0.0-3.0-1.283","","","Repeat","o","true"
"null","<div style=""font-size:60px;"">+</div>","null","html-keyboard-response","571","563042","0.0-3.0-0.284","","fixation","","",""
"734","Set1/043a.jpg","79","image-keyboard-response","572","563778","0.0-3.0-1.284","","","Repeat","o","true"
"null","<div style=""font-size:60px;"">+</div>","null","html-keyboard-response","573","564280","0.0-3.0-0.285","","fixation","","",""
"1490","Set1/016a.jpg","78","image-keyboard-response","574","565771","0.0-3.0-1.285","","","Set_1_Only","n","true"
"null","<div style=""font-size:60px;"">+</div>","null","html-keyboard-response","575","566272","0.0-3.0-0.286","","fixation","","",""
"1392","Set1/090a.jpg","78","image-keyboard-response","576","567665","0.0-3.0-1.286","","","Repeat","n","true"
"null","<div style=""font-size:60px;"">+</div>","null","html-keyboard-response","577","568167","0.0-3.0-0.287","","fixation","","",""
"726","Set1/141a.jpg","78","image-keyboard-response","578","568894","0.0-3.0-1.287","","","Update","n","true"
"null","<div style=""font-size:60px;"">+</div>","null","html-keyboard-response","579","569396","0.0-3.0-0.288","","fixation","","",""
"666","Set1/090a.jpg","78","image-keyboard-response","580","570065","0.0-3.0-1.288","","","Repeat","o","false"
"null","<div style=""font-size:60px;"">+</div>","null","html-keyboard-response","581","570567","0.0-3.0-0.289","","fixation","","",""
"1245","Set1/139a.jpg","78","image-keyboard-response","582","571814","0.0-3.0-1.289","","","Update","n","true"
"null","<div style=""font-size:60px;"">+</div>","null","html-keyboard-response","583","572315","0.0-3.0-0.290","","fixation","","",""
"1083","Set1/101a.jpg","79","image-keyboard-response","584","573399","0.0-3.0-1.290","","","Update","o","true"
"null","<div style=""font-size:60px;"">+</div>","null","html-keyboard-response","585","573901","0.0-3.0-0.291","","fixation","","",""
"1343","Set1/092a.jpg","78","image-keyboard-response","586","575246","0.0-3.0-1.291","","","Repeat","n","true"
"null","<div style=""font-size:60px;"">+</div>","null","html-keyboard-response","587","575747","0.0-3.0-0.292","","fixation","","",""
"994","Set1/087a.jpg","79","image-keyboard-response","588","576743","0.0-3.0-1.292","","","Repeat","o","true"
"null","<div style=""font-size:60px;"">+</div>","null","html-keyboard-response","589","577244","0.0-3.0-0.293","","fixation","","",""
"1453","Set1/034a.jpg","78","image-keyboard-response","590","578699","0.0-3.0-1.293","","","Repeat","n","true"
"null","<div style=""font-size:60px;"">+</div>","null","html-keyboard-response","591","579200","0.0-3.0-0.294","","fixation","","",""
"1858","Set1/153a.jpg","78","image-keyboard-response","592","581059","0.0-3.0-1.294","","","Update","n","true"
"null","<div style=""font-size:60px;"">+</div>","null","html-keyboard-response","593","581560","0.0-3.0-0.295","","fixation","","",""
"1351","Set1/092a.jpg","79","image-keyboard-response","594","582912","0.0-3.0-1.295","","","Repeat","o","true"
"null","<div style=""font-size:60px;"">+</div>","null","html-keyboard-response","595","583415","0.0-3.0-0.296","","fixation","","",""
"739","Set1/077a.jpg","79","image-keyboard-response","596","584155","0.0-3.0-1.296","","","Repeat","o","true"
"null","<div style=""font-size:60px;"">+</div>","null","html-keyboard-response","597","584656","0.0-3.0-0.297","","fixation","","",""
"1612","Set1/112a.jpg","78","image-keyboard-response","598","586271","0.0-3.0-1.297","","","Update","n","true"
"null","<div style=""font-size:60px;"">+</div>","null","html-keyboard-response","599","586771","0.0-3.0-0.298","","fixation","","",""
"1143","Set1/018a.jpg","79","image-keyboard-response","600","587917","0.0-3.0-1.298","","","Set_1_Only","o","true"
"null","<div style=""font-size:60px;"">+</div>","null","html-keyboard-response","601","588418","0.0-3.0-0.299","","fixation","","",""
"685","Set1/139a.jpg","79","image-keyboard-response","602","589106","0.0-3.0-1.299","","","Update","o","true"
"null","<div style=""font-size:60px;"">+</div>","null","html-keyboard-response","603","589607","0.0-3.0-0.300","","fixation","","",""
"673","Set1/153a.jpg","79","image-keyboard-response","604","590282","0.0-3.0-1.300","","","Update","o","true"
"null","<div style=""font-size:60px;"">+</div>","null","html-keyboard-response","605","590784","0.0-3.0-0.301","","fixation","","",""
"598","Set1/017a.jpg","79","image-keyboard-response","606","591383","0.0-3.0-1.301","","","Set_1_Only","o","true"
"null","<div style=""font-size:60px;"">+</div>","null","html-keyboard-response","607","591884","0.0-3.0-0.302","","fixation","","",""
"620","Set1/112a.jpg","79","image-keyboard-response","608","592505","0.0-3.0-1.302","","","Update","o","true"
"null","<div style=""font-size:60px;"">+</div>","null","html-keyboard-response","609","593007","0.0-3.0-0.303","","fixation","","",""
"692","Set1/109a.jpg","79","image-keyboard-response","610","593702","0.0-3.0-1.303","","","Update","o","true"
"null","<div style=""font-size:60px;"">+</div>","null","html-keyboard-response","611","594210","0.0-3.0-0.304","","fixation","","",""
"633","Set1/021a.jpg","79","image-keyboard-response","612","594846","0.0-3.0-1.304","","","Set_1_Only","o","true"
"null","<div style=""font-size:60px;"">+</div>","null","html-keyboard-response","613","595347","0.0-3.0-0.305","","fixation","","",""
"513","Set1/142a.jpg","79","image-keyboard-response","614","595862","0.0-3.0-1.305","","","Update","o","true"
"null","<div style=""font-size:60px;"">+</div>","null","html-keyboard-response","615","596363","0.0-3.0-0.306","","fixation","","",""
"3650","Set1/113a.jpg","79","image-keyboard-response","616","600015","0.0-3.0-1.306","","","Update","n","false"
"null","<div style=""font-size:60px;"">+</div>","null","html-keyboard-response","617","600515","0.0-3.0-0.307","","fixation","","",""
"764","Set1/016a.jpg","79","image-keyboard-response","618","601282","0.0-3.0-1.307","","","Set_1_Only","o","true"
"null","<div style=""font-size:60px;"">+</div>","null","html-keyboard-response","619","601782","0.0-3.0-0.308","","fixation","","",""
"704","Set1/061a.jpg","79","image-keyboard-response","620","602488","0.0-3.0-1.308","","","Repeat","o","true"
"null","<div style=""font-size:60px;"">+</div>","null","html-keyboard-response","621","602990","0.0-3.0-0.309","","fixation","","",""
"512","Set1/009a.jpg","79","image-keyboard-response","622","603503","0.0-3.0-1.309","","","Set_1_Only","o","true"
"null","<div style=""font-size:60px;"">+</div>","null","html-keyboard-response","623","604005","0.0-3.0-0.310","","fixation","","",""
"616","Set1/141a.jpg","79","image-keyboard-response","624","604623","0.0-3.0-1.310","","","Update","o","true"
"null","<div style=""font-size:60px;"">+</div>","null","html-keyboard-response","625","605125","0.0-3.0-0.311","","fixation","","",""
"647","Set1/011a.jpg","79","image-keyboard-response","626","605774","0.0-3.0-1.311","","","Set_1_Only","o","true"
"null","<div style=""font-size:60px;"">+</div>","null","html-keyboard-response","627","606274","0.0-3.0-0.312","","fixation","","",""
"712","Set1/113a.jpg","79","image-keyboard-response","628","606988","0.0-3.0-1.312","","","Update","o","true"
"null","<div style=""font-size:60px;"">+</div>","null","html-keyboard-response","629","607488","0.0-3.0-0.313","","fixation","","",""
"949","Set1/058a.jpg","79","image-keyboard-response","630","608439","0.0-3.0-1.313","","","Repeat","o","true"
"null","<div style=""font-size:60px;"">+</div>","null","html-keyboard-response","631","608940","0.0-3.0-0.314","","fixation","","",""
"759","Set1/083a.jpg","79","image-keyboard-response","632","609701","0.0-3.0-1.314","","","Repeat","o","true"
"null","<div style=""font-size:60px;"">+</div>","null","html-keyboard-response","633","610202","0.0-3.0-0.315","","fixation","","",""
"895","Set1/029a.jpg","79","image-keyboard-response","634","611099","0.0-3.0-1.315","","","Set_1_Only","o","true"
"null","<div style=""font-size:60px;"">+</div>","null","html-keyboard-response","635","611601","0.0-3.0-0.316","","fixation","","",""
"666","Set1/034a.jpg","79","image-keyboard-response","636","612269","0.0-3.0-1.316","","","Repeat","o","true"
"null","<div style=""font-size:60px;"">+</div>","null","html-keyboard-response","637","612770","0.0-3.0-0.317","","fixation","","",""
"570","Set1/070a.jpg","79","image-keyboard-response","638","613341","0.0-3.0-1.317","","","Repeat","o","true"
"null","<div style=""font-size:60px;"">+</div>","null","html-keyboard-response","639","613843","0.0-3.0-0.318","","fixation","","",""
"605","Set1/098a.jpg","79","image-keyboard-response","640","614450","0.0-3.0-1.318","","","Update","o","true"
"null","<div style=""font-size:60px;"">+</div>","null","html-keyboard-response","641","614952","0.0-3.0-0.319","","fixation","","",""
"715","Set1/007a.jpg","79","image-keyboard-response","642","615668","0.0-3.0-1.319","","","Set_1_Only","o","true"
