"rt","stimulus","key_press","trial_type","trial_index","time_elapsed","internal_node_id","responses","test_part","stim_type","correct_response","correct"
"2352","Press any key to begin.","77","html-keyboard-response","0","2362","0.0-0.0","","","","",""
"5385","","","survey-text","1","7752","0.0-1.0","{""Q0"":""\""Set2128225\"""",""Q1"":""""}","","","",""
"17719","<p>In this experiment you will see a series of everyday objects presented one at a time at the center of the screen. Each image will be presented twice. </p><p>The first time you see the image, press the N key to indicate that it is a NEW image. The second time you see the image, press the O key to indicate that it is an OLD image.</p><div style='width: 700px;'></div><p>Press any key to begin.</p>","66","html-keyboard-response","2","25474","0.0-2.0","","","","",""
"null","<div style=""font-size:60px;"">+</div>","null","html-keyboard-response","3","27977","0.0-3.0-0.0","","fixation","","",""
"null","Set1/063a.jpg","null","image-keyboard-response","4","37982","0.0-3.0-1.0","","","Repeat","n","false"
"null","<div style=""font-size:60px;"">+</div>","null","html-keyboard-response","5","38486","0.0-3.0-0.1","","fixation","","",""
"1925","Set1/064a.jpg","78","image-keyboard-response","6","40413","0.0-3.0-1.1","","","Repeat","n","true"
"null","<div style=""font-size:60px;"">+</div>","null","html-keyboard-response","7","40913","0.0-3.0-0.2","","fixation","","",""
"2255","Set1/047a.jpg","79","image-keyboard-response","8","43169","0.0-3.0-1.2","","","Repeat","n","false"
"null","<div style=""font-size:60px;"">+</div>","null","html-keyboard-response","9","43670","0.0-3.0-0.3","","fixation","","",""
"2185","Set1/025a.jpg","78","image-keyboard-response","10","45856","0.0-3.0-1.3","","","Set_1_Only","n","true"
"null","<div style=""font-size:60px;"">+</div>","null","html-keyboard-response","11","46357","0.0-3.0-0.4","","fixation","","",""
"1423","Set1/146a.jpg","79","image-keyboard-response","12","47782","0.0-3.0-1.4","","","Update","n","false"
"null","<div style=""font-size:60px;"">+</div>","null","html-keyboard-response","13","48283","0.0-3.0-0.5","","fixation","","",""
"2376","Set1/020a.jpg","79","image-keyboard-response","14","50660","0.0-3.0-1.5","","","Set_1_Only","n","false"
"null","<div style=""font-size:60px;"">+</div>","null","html-keyboard-response","15","51161","0.0-3.0-0.6","","fixation","","",""
"1990","Set1/120a.jpg","79","image-keyboard-response","16","53152","0.0-3.0-1.6","","","Update","n","false"
"null","<div style=""font-size:60px;"">+</div>","null","html-keyboard-response","17","53653","0.0-3.0-0.7","","fixation","","",""
"1946","Set1/148a.jpg","79","image-keyboard-response","18","55601","0.0-3.0-1.7","","","Update","n","false"
"null","<div style=""font-size:60px;"">+</div>","null","html-keyboard-response","19","56103","0.0-3.0-0.8","","fixation","","",""
"2636","Set1/028a.jpg","79","image-keyboard-response","20","58741","0.0-3.0-1.8","","","Set_1_Only","n","false"
"null","<div style=""font-size:60px;"">+</div>","null","html-keyboard-response","21","59243","0.0-3.0-0.9","","fixation","","",""
"1616","Set1/071a.jpg","79","image-keyboard-response","22","60860","0.0-3.0-1.9","","","Repeat","n","false"
"null","<div style=""font-size:60px;"">+</div>","null","html-keyboard-response","23","61361","0.0-3.0-0.10","","fixation","","",""
"1233","Set1/030a.jpg","79","image-keyboard-response","24","62596","0.0-3.0-1.10","","","Set_1_Only","n","false"
"null","<div style=""font-size:60px;"">+</div>","null","html-keyboard-response","25","63097","0.0-3.0-0.11","","fixation","","",""
"1594","Set1/037a.jpg","79","image-keyboard-response","26","64692","0.0-3.0-1.11","","","Repeat","n","false"
"null","<div style=""font-size:60px;"">+</div>","null","html-keyboard-response","27","65193","0.0-3.0-0.12","","fixation","","",""
"1228","Set1/120a.jpg","79","image-keyboard-response","28","66424","0.0-3.0-1.12","","","Update","o","true"
"null","<div style=""font-size:60px;"">+</div>","null","html-keyboard-response","29","66924","0.0-3.0-0.13","","fixation","","",""
"1664","Set1/005a.jpg","79","image-keyboard-response","30","68590","0.0-3.0-1.13","","","Set_1_Only","n","false"
"null","<div style=""font-size:60px;"">+</div>","null","html-keyboard-response","31","69095","0.0-3.0-0.14","","fixation","","",""
"1899","Set1/079a.jpg","79","image-keyboard-response","32","70995","0.0-3.0-1.14","","","Repeat","n","false"
"null","<div style=""font-size:60px;"">+</div>","null","html-keyboard-response","33","71496","0.0-3.0-0.15","","fixation","","",""
"1629","Set1/136a.jpg","78","image-keyboard-response","34","73127","0.0-3.0-1.15","","","Update","n","true"
"null","<div style=""font-size:60px;"">+</div>","null","html-keyboard-response","35","73628","0.0-3.0-0.16","","fixation","","",""
"1229","Set1/133a.jpg","78","image-keyboard-response","36","74858","0.0-3.0-1.16","","","Update","n","true"
"null","<div style=""font-size:60px;"">+</div>","null","html-keyboard-response","37","75359","0.0-3.0-0.17","","fixation","","",""
"1524","Set1/128a.jpg","79","image-keyboard-response","38","76885","0.0-3.0-1.17","","","Update","n","false"
"null","<div style=""font-size:60px;"">+</div>","null","html-keyboard-response","39","77385","0.0-3.0-0.18","","fixation","","",""
"977","Set1/054a.jpg","79","image-keyboard-response","40","78363","0.0-3.0-1.18","","","Repeat","n","false"
"null","<div style=""font-size:60px;"">+</div>","null","html-keyboard-response","41","78864","0.0-3.0-0.19","","fixation","","",""
"3114","Set1/108a.jpg","78","image-keyboard-response","42","81979","0.0-3.0-1.19","","","Update","n","true"
"null","<div style=""font-size:60px;"">+</div>","null","html-keyboard-response","43","82480","0.0-3.0-0.20","","fixation","","",""
"1526","Set1/050a.jpg","78","image-keyboard-response","44","84009","0.0-3.0-1.20","","","Repeat","n","true"
"null","<div style=""font-size:60px;"">+</div>","null","html-keyboard-response","45","84510","0.0-3.0-0.21","","fixation","","",""
"2363","Set1/140a.jpg","79","image-keyboard-response","46","86875","0.0-3.0-1.21","","","Update","n","false"
"null","<div style=""font-size:60px;"">+</div>","null","html-keyboard-response","47","87376","0.0-3.0-0.22","","fixation","","",""
"1721","Set1/051a.jpg","79","image-keyboard-response","48","89099","0.0-3.0-1.22","","","Repeat","n","false"
"null","<div style=""font-size:60px;"">+</div>","null","html-keyboard-response","49","89600","0.0-3.0-0.23","","fixation","","",""
"876","Set1/063a.jpg","79","image-keyboard-response","50","90478","0.0-3.0-1.23","","","Repeat","o","true"
"null","<div style=""font-size:60px;"">+</div>","null","html-keyboard-response","51","90978","0.0-3.0-0.24","","fixation","","",""
"1952","Set1/006a.jpg","79","image-keyboard-response","52","92931","0.0-3.0-1.24","","","Set_1_Only","n","false"
"null","<div style=""font-size:60px;"">+</div>","null","html-keyboard-response","53","93432","0.0-3.0-0.25","","fixation","","",""
"1414","Set1/158a.jpg","79","image-keyboard-response","54","94848","0.0-3.0-1.25","","","Update","n","false"
"null","<div style=""font-size:60px;"">+</div>","null","html-keyboard-response","55","95348","0.0-3.0-0.26","","fixation","","",""
"1031","Set1/020a.jpg","79","image-keyboard-response","56","96381","0.0-3.0-1.26","","","Set_1_Only","o","true"
"null","<div style=""font-size:60px;"">+</div>","null","html-keyboard-response","57","96881","0.0-3.0-0.27","","fixation","","",""
"1443","Set1/082a.jpg","79","image-keyboard-response","58","98325","0.0-3.0-1.27","","","Repeat","n","false"
"null","<div style=""font-size:60px;"">+</div>","null","html-keyboard-response","59","98826","0.0-3.0-0.28","","fixation","","",""
"1267","Set1/107a.jpg","79","image-keyboard-response","60","100094","0.0-3.0-1.28","","","Update","n","false"
"null","<div style=""font-size:60px;"">+</div>","null","html-keyboard-response","61","100595","0.0-3.0-0.29","","fixation","","",""
"1827","Set1/121a.jpg","79","image-keyboard-response","62","102424","0.0-3.0-1.29","","","Update","n","false"
"null","<div style=""font-size:60px;"">+</div>","null","html-keyboard-response","63","102924","0.0-3.0-0.30","","fixation","","",""
"1552","Set1/085a.jpg","79","image-keyboard-response","64","104477","0.0-3.0-1.30","","","Repeat","n","false"
"null","<div style=""font-size:60px;"">+</div>","null","html-keyboard-response","65","104978","0.0-3.0-0.31","","fixation","","",""
"1210","Set1/136a.jpg","79","image-keyboard-response","66","106189","0.0-3.0-1.31","","","Update","o","true"
"null","<div style=""font-size:60px;"">+</div>","null","html-keyboard-response","67","106690","0.0-3.0-0.32","","fixation","","",""
"1878","Set1/049a.jpg","78","image-keyboard-response","68","108569","0.0-3.0-1.32","","","Repeat","n","true"
"null","<div style=""font-size:60px;"">+</div>","null","html-keyboard-response","69","109076","0.0-3.0-0.33","","fixation","","",""
"1158","Set1/133a.jpg","79","image-keyboard-response","70","110236","0.0-3.0-1.33","","","Update","o","true"
"null","<div style=""font-size:60px;"">+</div>","null","html-keyboard-response","71","110736","0.0-3.0-0.34","","fixation","","",""
"2774","Set1/093a.jpg","79","image-keyboard-response","72","113511","0.0-3.0-1.34","","","Repeat","n","false"
"null","<div style=""font-size:60px;"">+</div>","null","html-keyboard-response","73","114014","0.0-3.0-0.35","","fixation","","",""
"813","Set1/064a.jpg","79","image-keyboard-response","74","114829","0.0-3.0-1.35","","","Repeat","o","true"
"null","<div style=""font-size:60px;"">+</div>","null","html-keyboard-response","75","115330","0.0-3.0-0.36","","fixation","","",""
"745","Set1/005a.jpg","79","image-keyboard-response","76","116076","0.0-3.0-1.36","","","Set_1_Only","o","true"
"null","<div style=""font-size:60px;"">+</div>","null","html-keyboard-response","77","116577","0.0-3.0-0.37","","fixation","","",""
"762","Set1/128a.jpg","79","image-keyboard-response","78","117340","0.0-3.0-1.37","","","Update","o","true"
"null","<div style=""font-size:60px;"">+</div>","null","html-keyboard-response","79","117842","0.0-3.0-0.38","","fixation","","",""
"2085","Set1/044a.jpg","78","image-keyboard-response","80","119929","0.0-3.0-1.38","","","Repeat","n","true"
"null","<div style=""font-size:60px;"">+</div>","null","html-keyboard-response","81","120430","0.0-3.0-0.39","","fixation","","",""
"1077","Set1/037a.jpg","79","image-keyboard-response","82","121510","0.0-3.0-1.39","","","Repeat","o","true"
"null","<div style=""font-size:60px;"">+</div>","null","html-keyboard-response","83","122010","0.0-3.0-0.40","","fixation","","",""
"1308","Set1/088a.jpg","79","image-keyboard-response","84","123320","0.0-3.0-1.40","","","Repeat","n","false"
"null","<div style=""font-size:60px;"">+</div>","null","html-keyboard-response","85","123821","0.0-3.0-0.41","","fixation","","",""
"914","Set1/106a.jpg","79","image-keyboard-response","86","124736","0.0-3.0-1.41","","","Update","n","false"
"null","<div style=""font-size:60px;"">+</div>","null","html-keyboard-response","87","125237","0.0-3.0-0.42","","fixation","","",""
"2195","Set1/031a.jpg","78","image-keyboard-response","88","127433","0.0-3.0-1.42","","","Set_1_Only","n","true"
"null","<div style=""font-size:60px;"">+</div>","null","html-keyboard-response","89","127934","0.0-3.0-0.43","","fixation","","",""
"1267","Set1/160a.jpg","79","image-keyboard-response","90","129202","0.0-3.0-1.43","","","Update","n","false"
"null","<div style=""font-size:60px;"">+</div>","null","html-keyboard-response","91","129703","0.0-3.0-0.44","","fixation","","",""
"1799","Set1/025a.jpg","79","image-keyboard-response","92","131503","0.0-3.0-1.44","","","Set_1_Only","o","true"
"null","<div style=""font-size:60px;"">+</div>","null","html-keyboard-response","93","132004","0.0-3.0-0.45","","fixation","","",""
"889","Set1/088a.jpg","79","image-keyboard-response","94","132896","0.0-3.0-1.45","","","Repeat","o","true"
"null","<div style=""font-size:60px;"">+</div>","null","html-keyboard-response","95","133397","0.0-3.0-0.46","","fixation","","",""
"775","Set1/093a.jpg","79","image-keyboard-response","96","134174","0.0-3.0-1.46","","","Repeat","o","true"
"null","<div style=""font-size:60px;"">+</div>","null","html-keyboard-response","97","134674","0.0-3.0-0.47","","fixation","","",""
"748","Set1/054a.jpg","79","image-keyboard-response","98","135423","0.0-3.0-1.47","","","Repeat","o","true"
"null","<div style=""font-size:60px;"">+</div>","null","html-keyboard-response","99","135925","0.0-3.0-0.48","","fixation","","",""
"1662","Set1/105a.jpg","78","image-keyboard-response","100","137589","0.0-3.0-1.48","","","Update","n","true"
"null","<div style=""font-size:60px;"">+</div>","null","html-keyboard-response","101","138089","0.0-3.0-0.49","","fixation","","",""
"1625","Set1/045a.jpg","79","image-keyboard-response","102","139716","0.0-3.0-1.49","","","Repeat","n","false"
"null","<div style=""font-size:60px;"">+</div>","null","html-keyboard-response","103","140217","0.0-3.0-0.50","","fixation","","",""
"1100","Set1/006a.jpg","79","image-keyboard-response","104","141319","0.0-3.0-1.50","","","Set_1_Only","o","true"
"null","<div style=""font-size:60px;"">+</div>","null","html-keyboard-response","105","141819","0.0-3.0-0.51","","fixation","","",""
"715","Set1/140a.jpg","79","image-keyboard-response","106","142535","0.0-3.0-1.51","","","Update","o","true"
"null","<div style=""font-size:60px;"">+</div>","null","html-keyboard-response","107","143036","0.0-3.0-0.52","","fixation","","",""
"1348","Set1/027a.jpg","79","image-keyboard-response","108","144386","0.0-3.0-1.52","","","Set_1_Only","n","false"
"null","<div style=""font-size:60px;"">+</div>","null","html-keyboard-response","109","144886","0.0-3.0-0.53","","fixation","","",""
"739","Set1/049a.jpg","79","image-keyboard-response","110","145626","0.0-3.0-1.53","","","Repeat","o","true"
"null","<div style=""font-size:60px;"">+</div>","null","html-keyboard-response","111","146127","0.0-3.0-0.54","","fixation","","",""
"952","Set1/051a.jpg","79","image-keyboard-response","112","147081","0.0-3.0-1.54","","","Repeat","o","true"
"null","<div style=""font-size:60px;"">+</div>","null","html-keyboard-response","113","147581","0.0-3.0-0.55","","fixation","","",""
"653","Set1/028a.jpg","79","image-keyboard-response","114","148235","0.0-3.0-1.55","","","Set_1_Only","o","true"
"null","<div style=""font-size:60px;"">+</div>","null","html-keyboard-response","115","148736","0.0-3.0-0.56","","fixation","","",""
"823","Set1/047a.jpg","79","image-keyboard-response","116","149560","0.0-3.0-1.56","","","Repeat","o","true"
"null","<div style=""font-size:60px;"">+</div>","null","html-keyboard-response","117","150061","0.0-3.0-0.57","","fixation","","",""
"787","Set1/071a.jpg","79","image-keyboard-response","118","150849","0.0-3.0-1.57","","","Repeat","o","true"
"null","<div style=""font-size:60px;"">+</div>","null","html-keyboard-response","119","151350","0.0-3.0-0.58","","fixation","","",""
"813","Set1/108a.jpg","79","image-keyboard-response","120","152165","0.0-3.0-1.58","","","Update","o","true"
"null","<div style=""font-size:60px;"">+</div>","null","html-keyboard-response","121","152665","0.0-3.0-0.59","","fixation","","",""
"1198","Set1/027a.jpg","79","image-keyboard-response","122","153864","0.0-3.0-1.59","","","Set_1_Only","o","true"
"null","<div style=""font-size:60px;"">+</div>","null","html-keyboard-response","123","154364","0.0-3.0-0.60","","fixation","","",""
"860","Set1/044a.jpg","79","image-keyboard-response","124","155225","0.0-3.0-1.60","","","Repeat","o","true"
"null","<div style=""font-size:60px;"">+</div>","null","html-keyboard-response","125","155726","0.0-3.0-0.61","","fixation","","",""
"884","Set1/045a.jpg","79","image-keyboard-response","126","156611","0.0-3.0-1.61","","","Repeat","o","true"
"null","<div style=""font-size:60px;"">+</div>","null","html-keyboard-response","127","157113","0.0-3.0-0.62","","fixation","","",""
"1661","Set1/134a.jpg","78","image-keyboard-response","128","158775","0.0-3.0-1.62","","","Update","n","true"
"null","<div style=""font-size:60px;"">+</div>","null","html-keyboard-response","129","159306","0.0-3.0-0.63","","fixation","","",""
"1059","Set1/158a.jpg","79","image-keyboard-response","130","160366","0.0-3.0-1.63","","","Update","o","true"
"null","<div style=""font-size:60px;"">+</div>","null","html-keyboard-response","131","160867","0.0-3.0-0.64","","fixation","","",""
"656","Set1/106a.jpg","79","image-keyboard-response","132","161524","0.0-3.0-1.64","","","Update","o","true"
"null","<div style=""font-size:60px;"">+</div>","null","html-keyboard-response","133","162024","0.0-3.0-0.65","","fixation","","",""
"1560","Set1/119a.jpg","78","image-keyboard-response","134","163586","0.0-3.0-1.65","","","Update","n","true"
"null","<div style=""font-size:60px;"">+</div>","null","html-keyboard-response","135","164088","0.0-3.0-0.66","","fixation","","",""
"1069","Set1/105a.jpg","79","image-keyboard-response","136","165159","0.0-3.0-1.66","","","Update","o","true"
"null","<div style=""font-size:60px;"">+</div>","null","html-keyboard-response","137","165660","0.0-3.0-0.67","","fixation","","",""
"972","Set1/119a.jpg","79","image-keyboard-response","138","166634","0.0-3.0-1.67","","","Update","o","true"
"null","<div style=""font-size:60px;"">+</div>","null","html-keyboard-response","139","167134","0.0-3.0-0.68","","fixation","","",""
"782","Set1/148a.jpg","79","image-keyboard-response","140","167917","0.0-3.0-1.68","","","Update","o","true"
"null","<div style=""font-size:60px;"">+</div>","null","html-keyboard-response","141","168418","0.0-3.0-0.69","","fixation","","",""
"1986","Set1/031a.jpg","78","image-keyboard-response","142","170405","0.0-3.0-1.69","","","Set_1_Only","o","false"
"null","<div style=""font-size:60px;"">+</div>","null","html-keyboard-response","143","170906","0.0-3.0-0.70","","fixation","","",""
"881","Set1/050a.jpg","79","image-keyboard-response","144","171788","0.0-3.0-1.70","","","Repeat","o","true"
"null","<div style=""font-size:60px;"">+</div>","null","html-keyboard-response","145","172289","0.0-3.0-0.71","","fixation","","",""
"666","Set1/082a.jpg","79","image-keyboard-response","146","172957","0.0-3.0-1.71","","","Repeat","o","true"
"null","<div style=""font-size:60px;"">+</div>","null","html-keyboard-response","147","173457","0.0-3.0-0.72","","fixation","","",""
"804","Set1/085a.jpg","79","image-keyboard-response","148","174262","0.0-3.0-1.72","","","Repeat","o","true"
"null","<div style=""font-size:60px;"">+</div>","null","html-keyboard-response","149","174763","0.0-3.0-0.73","","fixation","","",""
"634","Set1/030a.jpg","79","image-keyboard-response","150","175398","0.0-3.0-1.73","","","Set_1_Only","o","true"
"null","<div style=""font-size:60px;"">+</div>","null","html-keyboard-response","151","175899","0.0-3.0-0.74","","fixation","","",""
"739","Set1/160a.jpg","79","image-keyboard-response","152","176639","0.0-3.0-1.74","","","Update","o","true"
"null","<div style=""font-size:60px;"">+</div>","null","html-keyboard-response","153","177140","0.0-3.0-0.75","","fixation","","",""
"888","Set1/134a.jpg","79","image-keyboard-response","154","178030","0.0-3.0-1.75","","","Update","o","true"
"null","<div style=""font-size:60px;"">+</div>","null","html-keyboard-response","155","178530","0.0-3.0-0.76","","fixation","","",""
"1298","Set1/146a.jpg","79","image-keyboard-response","156","179830","0.0-3.0-1.76","","","Update","o","true"
"null","<div style=""font-size:60px;"">+</div>","null","html-keyboard-response","157","180330","0.0-3.0-0.77","","fixation","","",""
"580","Set1/107a.jpg","79","image-keyboard-response","158","180911","0.0-3.0-1.77","","","Update","o","true"
"null","<div style=""font-size:60px;"">+</div>","null","html-keyboard-response","159","181414","0.0-3.0-0.78","","fixation","","",""
"577","Set1/079a.jpg","79","image-keyboard-response","160","181993","0.0-3.0-1.78","","","Repeat","o","true"
"null","<div style=""font-size:60px;"">+</div>","null","html-keyboard-response","161","182493","0.0-3.0-0.79","","fixation","","",""
"635","Set1/121a.jpg","79","image-keyboard-response","162","183130","0.0-3.0-1.79","","","Update","o","true"
"null","<div style=""font-size:60px;"">+</div>","null","html-keyboard-response","163","183630","0.0-3.0-0.80","","fixation","","",""
"1580","Set1/095a.jpg","78","image-keyboard-response","164","185211","0.0-3.0-1.80","","","Repeat","n","true"
"null","<div style=""font-size:60px;"">+</div>","null","html-keyboard-response","165","185713","0.0-3.0-0.81","","fixation","","",""
"1462","Set1/041a.jpg","78","image-keyboard-response","166","187177","0.0-3.0-1.81","","","Repeat","n","true"
"null","<div style=""font-size:60px;"">+</div>","null","html-keyboard-response","167","187677","0.0-3.0-0.82","","fixation","","",""
"1405","Set1/100a.jpg","78","image-keyboard-response","168","189084","0.0-3.0-1.82","","","Update","n","true"
"null","<div style=""font-size:60px;"">+</div>","null","html-keyboard-response","169","189584","0.0-3.0-0.83","","fixation","","",""
"1141","Set1/036a.jpg","79","image-keyboard-response","170","190726","0.0-3.0-1.83","","","Repeat","n","false"
"null","<div style=""font-size:60px;"">+</div>","null","html-keyboard-response","171","191226","0.0-3.0-0.84","","fixation","","",""
"1211","Set1/115a.jpg","79","image-keyboard-response","172","192439","0.0-3.0-1.84","","","Update","n","false"
"null","<div style=""font-size:60px;"">+</div>","null","html-keyboard-response","173","192939","0.0-3.0-0.85","","fixation","","",""
"2518","Set1/123a.jpg","78","image-keyboard-response","174","195458","0.0-3.0-1.85","","","Update","n","true"
"null","<div style=""font-size:60px;"">+</div>","null","html-keyboard-response","175","195959","0.0-3.0-0.86","","fixation","","",""
"1261","Set1/015a.jpg","79","image-keyboard-response","176","197222","0.0-3.0-1.86","","","Set_1_Only","n","false"
"null","<div style=""font-size:60px;"">+</div>","null","html-keyboard-response","177","197722","0.0-3.0-0.87","","fixation","","",""
"948","Set1/096a.jpg","79","image-keyboard-response","178","198671","0.0-3.0-1.87","","","Repeat","n","false"
"null","<div style=""font-size:60px;"">+</div>","null","html-keyboard-response","179","199172","0.0-3.0-0.88","","fixation","","",""
"1649","Set1/110a.jpg","79","image-keyboard-response","180","200823","0.0-3.0-1.88","","","Update","n","false"
"null","<div style=""font-size:60px;"">+</div>","null","html-keyboard-response","181","201323","0.0-3.0-0.89","","fixation","","",""
"1499","Set1/151a.jpg","79","image-keyboard-response","182","202823","0.0-3.0-1.89","","","Update","n","false"
"null","<div style=""font-size:60px;"">+</div>","null","html-keyboard-response","183","203324","0.0-3.0-0.90","","fixation","","",""
"1519","Set1/035a.jpg","78","image-keyboard-response","184","204845","0.0-3.0-1.90","","","Repeat","n","true"
"null","<div style=""font-size:60px;"">+</div>","null","html-keyboard-response","185","205345","0.0-3.0-0.91","","fixation","","",""
"2026","Set1/026a.jpg","78","image-keyboard-response","186","207373","0.0-3.0-1.91","","","Set_1_Only","n","true"
"null","<div style=""font-size:60px;"">+</div>","null","html-keyboard-response","187","207874","0.0-3.0-0.92","","fixation","","",""
"1579","Set1/067a.jpg","79","image-keyboard-response","188","209455","0.0-3.0-1.92","","","Repeat","n","false"
"null","<div style=""font-size:60px;"">+</div>","null","html-keyboard-response","189","209955","0.0-3.0-0.93","","fixation","","",""
"1417","Set1/076a.jpg","78","image-keyboard-response","190","211373","0.0-3.0-1.93","","","Repeat","n","true"
"null","<div style=""font-size:60px;"">+</div>","null","html-keyboard-response","191","211874","0.0-3.0-0.94","","fixation","","",""
"1408","Set1/125a.jpg","78","image-keyboard-response","192","213283","0.0-3.0-1.94","","","Update","n","true"
"null","<div style=""font-size:60px;"">+</div>","null","html-keyboard-response","193","213784","0.0-3.0-0.95","","fixation","","",""
"959","Set1/123a.jpg","79","image-keyboard-response","194","214744","0.0-3.0-1.95","","","Update","o","true"
"null","<div style=""font-size:60px;"">+</div>","null","html-keyboard-response","195","215245","0.0-3.0-0.96","","fixation","","",""
"656","Set1/076a.jpg","79","image-keyboard-response","196","215902","0.0-3.0-1.96","","","Repeat","o","true"
"null","<div style=""font-size:60px;"">+</div>","null","html-keyboard-response","197","216402","0.0-3.0-0.97","","fixation","","",""
"660","Set1/151a.jpg","79","image-keyboard-response","198","217064","0.0-3.0-1.97","","","Update","o","true"
"null","<div style=""font-size:60px;"">+</div>","null","html-keyboard-response","199","217564","0.0-3.0-0.98","","fixation","","",""
"615","Set1/115a.jpg","79","image-keyboard-response","200","218181","0.0-3.0-1.98","","","Update","o","true"
"null","<div style=""font-size:60px;"">+</div>","null","html-keyboard-response","201","218681","0.0-3.0-0.99","","fixation","","",""
"1709","Set1/081a.jpg","78","image-keyboard-response","202","220391","0.0-3.0-1.99","","","Repeat","n","true"
"null","<div style=""font-size:60px;"">+</div>","null","html-keyboard-response","203","220892","0.0-3.0-0.100","","fixation","","",""
"926","Set1/015a.jpg","79","image-keyboard-response","204","221820","0.0-3.0-1.100","","","Set_1_Only","o","true"
"null","<div style=""font-size:60px;"">+</div>","null","html-keyboard-response","205","222322","0.0-3.0-0.101","","fixation","","",""
"756","Set1/035a.jpg","79","image-keyboard-response","206","223080","0.0-3.0-1.101","","","Repeat","o","true"
"null","<div style=""font-size:60px;"">+</div>","null","html-keyboard-response","207","223580","0.0-3.0-0.102","","fixation","","",""
"1931","Set1/014a.jpg","78","image-keyboard-response","208","225512","0.0-3.0-1.102","","","Set_1_Only","n","true"
"null","<div style=""font-size:60px;"">+</div>","null","html-keyboard-response","209","226013","0.0-3.0-0.103","","fixation","","",""
"1877","Set1/152a.jpg","78","image-keyboard-response","210","227891","0.0-3.0-1.103","","","Update","n","true"
"null","<div style=""font-size:60px;"">+</div>","null","html-keyboard-response","211","228392","0.0-3.0-0.104","","fixation","","",""
"2412","Set1/114a.jpg","79","image-keyboard-response","212","230806","0.0-3.0-1.104","","","Update","n","false"
"null","<div style=""font-size:60px;"">+</div>","null","html-keyboard-response","213","231309","0.0-3.0-0.105","","fixation","","",""
"1530","Set1/019a.jpg","79","image-keyboard-response","214","232841","0.0-3.0-1.105","","","Set_1_Only","n","false"
"null","<div style=""font-size:60px;"">+</div>","null","html-keyboard-response","215","233341","0.0-3.0-0.106","","fixation","","",""
"1131","Set1/013a.jpg","79","image-keyboard-response","216","234473","0.0-3.0-1.106","","","Set_1_Only","n","false"
"null","<div style=""font-size:60px;"">+</div>","null","html-keyboard-response","217","234974","0.0-3.0-0.107","","fixation","","",""
"1524","Set1/053a.jpg","78","image-keyboard-response","218","236499","0.0-3.0-1.107","","","Repeat","n","true"
"null","<div style=""font-size:60px;"">+</div>","null","html-keyboard-response","219","237000","0.0-3.0-0.108","","fixation","","",""
"933","Set1/026a.jpg","79","image-keyboard-response","220","237934","0.0-3.0-1.108","","","Set_1_Only","o","true"
"null","<div style=""font-size:60px;"">+</div>","null","html-keyboard-response","221","238435","0.0-3.0-0.109","","fixation","","",""
"1970","Set1/138a.jpg","79","image-keyboard-response","222","240407","0.0-3.0-1.109","","","Update","n","false"
"null","<div style=""font-size:60px;"">+</div>","null","html-keyboard-response","223","240908","0.0-3.0-0.110","","fixation","","",""
"1251","Set1/010a.jpg","79","image-keyboard-response","224","242161","0.0-3.0-1.110","","","Set_1_Only","n","false"
"null","<div style=""font-size:60px;"">+</div>","null","html-keyboard-response","225","242661","0.0-3.0-0.111","","fixation","","",""
"2366","Set1/008a.jpg","79","image-keyboard-response","226","245028","0.0-3.0-1.111","","","Set_1_Only","n","false"
"null","<div style=""font-size:60px;"">+</div>","null","html-keyboard-response","227","245529","0.0-3.0-0.112","","fixation","","",""
"670","Set1/036a.jpg","79","image-keyboard-response","228","246201","0.0-3.0-1.112","","","Repeat","o","true"
"null","<div style=""font-size:60px;"">+</div>","null","html-keyboard-response","229","246702","0.0-3.0-0.113","","fixation","","",""
"738","Set1/081a.jpg","79","image-keyboard-response","230","247442","0.0-3.0-1.113","","","Repeat","o","true"
"null","<div style=""font-size:60px;"">+</div>","null","html-keyboard-response","231","247944","0.0-3.0-0.114","","fixation","","",""
"639","Set1/114a.jpg","79","image-keyboard-response","232","248584","0.0-3.0-1.114","","","Update","o","true"
"null","<div style=""font-size:60px;"">+</div>","null","html-keyboard-response","233","249085","0.0-3.0-0.115","","fixation","","",""
"1412","Set1/156a.jpg","79","image-keyboard-response","234","250499","0.0-3.0-1.115","","","Update","n","false"
"null","<div style=""font-size:60px;"">+</div>","null","html-keyboard-response","235","250999","0.0-3.0-0.116","","fixation","","",""
"1653","Set1/056a.jpg","79","image-keyboard-response","236","252653","0.0-3.0-1.116","","","Repeat","n","false"
"null","<div style=""font-size:60px;"">+</div>","null","html-keyboard-response","237","253155","0.0-3.0-0.117","","fixation","","",""
"1355","Set1/150a.jpg","79","image-keyboard-response","238","254512","0.0-3.0-1.117","","","Update","n","false"
"null","<div style=""font-size:60px;"">+</div>","null","html-keyboard-response","239","255012","0.0-3.0-0.118","","fixation","","",""
"730","Set1/152a.jpg","79","image-keyboard-response","240","255743","0.0-3.0-1.118","","","Update","o","true"
"null","<div style=""font-size:60px;"">+</div>","null","html-keyboard-response","241","256244","0.0-3.0-0.119","","fixation","","",""
"3101","Set1/157a.jpg","79","image-keyboard-response","242","259346","0.0-3.0-1.119","","","Update","n","false"
"null","<div style=""font-size:60px;"">+</div>","null","html-keyboard-response","243","259847","0.0-3.0-0.120","","fixation","","",""
"1160","Set1/059a.jpg","79","image-keyboard-response","244","261009","0.0-3.0-1.120","","","Repeat","n","false"
"null","<div style=""font-size:60px;"">+</div>","null","html-keyboard-response","245","261509","0.0-3.0-0.121","","fixation","","",""
"711","Set1/055a.jpg","79","image-keyboard-response","246","262221","0.0-3.0-1.121","","","Repeat","n","false"
"null","<div style=""font-size:60px;"">+</div>","null","html-keyboard-response","247","262723","0.0-3.0-0.122","","fixation","","",""
"806","Set1/019a.jpg","79","image-keyboard-response","248","263531","0.0-3.0-1.122","","","Set_1_Only","o","true"
"null","<div style=""font-size:60px;"">+</div>","null","html-keyboard-response","249","264031","0.0-3.0-0.123","","fixation","","",""
"1252","Set1/075a.jpg","78","image-keyboard-response","250","265284","0.0-3.0-1.123","","","Repeat","n","true"
"null","<div style=""font-size:60px;"">+</div>","null","html-keyboard-response","251","265785","0.0-3.0-0.124","","fixation","","",""
"1827","Set1/048a.jpg","79","image-keyboard-response","252","267614","0.0-3.0-1.124","","","Repeat","n","false"
"null","<div style=""font-size:60px;"">+</div>","null","html-keyboard-response","253","268114","0.0-3.0-0.125","","fixation","","",""
"1210","Set1/052a.jpg","78","image-keyboard-response","254","269327","0.0-3.0-1.125","","","Repeat","n","true"
"null","<div style=""font-size:60px;"">+</div>","null","html-keyboard-response","255","269827","0.0-3.0-0.126","","fixation","","",""
"1450","Set1/154a.jpg","79","image-keyboard-response","256","271278","0.0-3.0-1.126","","","Update","n","false"
"null","<div style=""font-size:60px;"">+</div>","null","html-keyboard-response","257","271779","0.0-3.0-0.127","","fixation","","",""
"729","Set1/041a.jpg","79","image-keyboard-response","258","272509","0.0-3.0-1.127","","","Repeat","o","true"
"null","<div style=""font-size:60px;"">+</div>","null","html-keyboard-response","259","273010","0.0-3.0-0.128","","fixation","","",""
"577","Set1/010a.jpg","79","image-keyboard-response","260","273588","0.0-3.0-1.128","","","Set_1_Only","o","true"
"null","<div style=""font-size:60px;"">+</div>","null","html-keyboard-response","261","274089","0.0-3.0-0.129","","fixation","","",""
"934","Set1/008a.jpg","79","image-keyboard-response","262","275024","0.0-3.0-1.129","","","Set_1_Only","o","true"
"null","<div style=""font-size:60px;"">+</div>","null","html-keyboard-response","263","275525","0.0-3.0-0.130","","fixation","","",""
"611","Set1/154a.jpg","79","image-keyboard-response","264","276137","0.0-3.0-1.130","","","Update","o","true"
"null","<div style=""font-size:60px;"">+</div>","null","html-keyboard-response","265","276638","0.0-3.0-0.131","","fixation","","",""
"771","Set1/048a.jpg","79","image-keyboard-response","266","277410","0.0-3.0-1.131","","","Repeat","o","true"
"null","<div style=""font-size:60px;"">+</div>","null","html-keyboard-response","267","277911","0.0-3.0-0.132","","fixation","","",""
"1231","Set1/053a.jpg","79","image-keyboard-response","268","279143","0.0-3.0-1.132","","","Repeat","o","true"
"null","<div style=""font-size:60px;"">+</div>","null","html-keyboard-response","269","279644","0.0-3.0-0.133","","fixation","","",""
"761","Set1/138a.jpg","79","image-keyboard-response","270","280407","0.0-3.0-1.133","","","Update","o","true"
"null","<div style=""font-size:60px;"">+</div>","null","html-keyboard-response","271","280908","0.0-3.0-0.134","","fixation","","",""
"785","Set1/014a.jpg","79","image-keyboard-response","272","281694","0.0-3.0-1.134","","","Set_1_Only","o","true"
"null","<div style=""font-size:60px;"">+</div>","null","html-keyboard-response","273","282195","0.0-3.0-0.135","","fixation","","",""
"1003","Set1/075a.jpg","79","image-keyboard-response","274","283200","0.0-3.0-1.135","","","Repeat","o","true"
"null","<div style=""font-size:60px;"">+</div>","null","html-keyboard-response","275","283700","0.0-3.0-0.136","","fixation","","",""
"1727","Set1/111a.jpg","78","image-keyboard-response","276","285429","0.0-3.0-1.136","","","Update","n","true"
"null","<div style=""font-size:60px;"">+</div>","null","html-keyboard-response","277","285929","0.0-3.0-0.137","","fixation","","",""
"1078","Set1/056a.jpg","79","image-keyboard-response","278","287008","0.0-3.0-1.137","","","Repeat","o","true"
"null","<div style=""font-size:60px;"">+</div>","null","html-keyboard-response","279","287509","0.0-3.0-0.138","","fixation","","",""
"1637","Set1/003a.jpg","78","image-keyboard-response","280","289148","0.0-3.0-1.138","","","Set_1_Only","n","true"
"null","<div style=""font-size:60px;"">+</div>","null","html-keyboard-response","281","289649","0.0-3.0-0.139","","fixation","","",""
"1279","Set1/125a.jpg","79","image-keyboard-response","282","290930","0.0-3.0-1.139","","","Update","o","true"
"null","<div style=""font-size:60px;"">+</div>","null","html-keyboard-response","283","291430","0.0-3.0-0.140","","fixation","","",""
"1751","Set1/072a.jpg","78","image-keyboard-response","284","293182","0.0-3.0-1.140","","","Repeat","n","true"
"null","<div style=""font-size:60px;"">+</div>","null","html-keyboard-response","285","293684","0.0-3.0-0.141","","fixation","","",""
"1324","Set1/084a.jpg","79","image-keyboard-response","286","295009","0.0-3.0-1.141","","","Repeat","n","false"
"null","<div style=""font-size:60px;"">+</div>","null","html-keyboard-response","287","295510","0.0-3.0-0.142","","fixation","","",""
"595","Set1/156a.jpg","79","image-keyboard-response","288","296106","0.0-3.0-1.142","","","Update","o","true"
"null","<div style=""font-size:60px;"">+</div>","null","html-keyboard-response","289","296607","0.0-3.0-0.143","","fixation","","",""
"685","Set1/003a.jpg","79","image-keyboard-response","290","297293","0.0-3.0-1.143","","","Set_1_Only","o","true"
"null","<div style=""font-size:60px;"">+</div>","null","html-keyboard-response","291","297794","0.0-3.0-0.144","","fixation","","",""
"796","Set1/059a.jpg","79","image-keyboard-response","292","298592","0.0-3.0-1.144","","","Repeat","o","true"
"null","<div style=""font-size:60px;"">+</div>","null","html-keyboard-response","293","299094","0.0-3.0-0.145","","fixation","","",""
"742","Set1/110a.jpg","79","image-keyboard-response","294","299837","0.0-3.0-1.145","","","Update","o","true"
"null","<div style=""font-size:60px;"">+</div>","null","html-keyboard-response","295","300338","0.0-3.0-0.146","","fixation","","",""
"608","Set1/084a.jpg","79","image-keyboard-response","296","300948","0.0-3.0-1.146","","","Repeat","o","true"
"null","<div style=""font-size:60px;"">+</div>","null","html-keyboard-response","297","301448","0.0-3.0-0.147","","fixation","","",""
"642","Set1/072a.jpg","79","image-keyboard-response","298","302091","0.0-3.0-1.147","","","Repeat","o","true"
"null","<div style=""font-size:60px;"">+</div>","null","html-keyboard-response","299","302592","0.0-3.0-0.148","","fixation","","",""
"3187","Set1/127a.jpg","79","image-keyboard-response","300","305781","0.0-3.0-1.148","","","Update","n","false"
"null","<div style=""font-size:60px;"">+</div>","null","html-keyboard-response","301","306287","0.0-3.0-0.149","","fixation","","",""
"945","Set1/095a.jpg","79","image-keyboard-response","302","307236","0.0-3.0-1.149","","","Repeat","o","true"
"null","<div style=""font-size:60px;"">+</div>","null","html-keyboard-response","303","307737","0.0-3.0-0.150","","fixation","","",""
"644","Set1/013a.jpg","79","image-keyboard-response","304","308383","0.0-3.0-1.150","","","Set_1_Only","o","true"
"null","<div style=""font-size:60px;"">+</div>","null","html-keyboard-response","305","308884","0.0-3.0-0.151","","fixation","","",""
"649","Set1/067a.jpg","79","image-keyboard-response","306","309534","0.0-3.0-1.151","","","Repeat","o","true"
"null","<div style=""font-size:60px;"">+</div>","null","html-keyboard-response","307","310036","0.0-3.0-0.152","","fixation","","",""
"850","Set1/157a.jpg","79","image-keyboard-response","308","310887","0.0-3.0-1.152","","","Update","o","true"
"null","<div style=""font-size:60px;"">+</div>","null","html-keyboard-response","309","311389","0.0-3.0-0.153","","fixation","","",""
"922","Set1/127a.jpg","79","image-keyboard-response","310","312312","0.0-3.0-1.153","","","Update","o","true"
"null","<div style=""font-size:60px;"">+</div>","null","html-keyboard-response","311","312813","0.0-3.0-0.154","","fixation","","",""
"686","Set1/052a.jpg","79","image-keyboard-response","312","313501","0.0-3.0-1.154","","","Repeat","o","true"
"null","<div style=""font-size:60px;"">+</div>","null","html-keyboard-response","313","314001","0.0-3.0-0.155","","fixation","","",""
"701","Set1/055a.jpg","79","image-keyboard-response","314","314703","0.0-3.0-1.155","","","Repeat","o","true"
"null","<div style=""font-size:60px;"">+</div>","null","html-keyboard-response","315","315205","0.0-3.0-0.156","","fixation","","",""
"815","Set1/111a.jpg","79","image-keyboard-response","316","316021","0.0-3.0-1.156","","","Update","o","true"
"null","<div style=""font-size:60px;"">+</div>","null","html-keyboard-response","317","316522","0.0-3.0-0.157","","fixation","","",""
"717","Set1/150a.jpg","79","image-keyboard-response","318","317242","0.0-3.0-1.157","","","Update","o","true"
"null","<div style=""font-size:60px;"">+</div>","null","html-keyboard-response","319","317750","0.0-3.0-0.158","","fixation","","",""
"658","Set1/100a.jpg","79","image-keyboard-response","320","318409","0.0-3.0-1.158","","","Update","o","true"
"null","<div style=""font-size:60px;"">+</div>","null","html-keyboard-response","321","318911","0.0-3.0-0.159","","fixation","","",""
"718","Set1/096a.jpg","79","image-keyboard-response","322","319631","0.0-3.0-1.159","","","Repeat","o","true"
"null","<div style=""font-size:60px;"">+</div>","null","html-keyboard-response","323","320131","0.0-3.0-0.160","","fixation","","",""
"1729","Set1/159a.jpg","78","image-keyboard-response","324","321861","0.0-3.0-1.160","","","Update","n","true"
"null","<div style=""font-size:60px;"">+</div>","null","html-keyboard-response","325","322373","0.0-3.0-0.161","","fixation","","",""
"1756","Set1/074a.jpg","79","image-keyboard-response","326","324131","0.0-3.0-1.161","","","Repeat","n","false"
"null","<div style=""font-size:60px;"">+</div>","null","html-keyboard-response","327","324631","0.0-3.0-0.162","","fixation","","",""
"1774","Set1/060a.jpg","79","image-keyboard-response","328","326406","0.0-3.0-1.162","","","Repeat","n","false"
"null","<div style=""font-size:60px;"">+</div>","null","html-keyboard-response","329","326907","0.0-3.0-0.163","","fixation","","",""
"1241","Set1/062a.jpg","79","image-keyboard-response","330","328149","0.0-3.0-1.163","","","Repeat","n","false"
"null","<div style=""font-size:60px;"">+</div>","null","html-keyboard-response","331","328650","0.0-3.0-0.164","","fixation","","",""
"1918","Set1/155a.jpg","79","image-keyboard-response","332","330569","0.0-3.0-1.164","","","Update","n","false"
"null","<div style=""font-size:60px;"">+</div>","null","html-keyboard-response","333","331070","0.0-3.0-0.165","","fixation","","",""
"1525","Set1/117a.jpg","79","image-keyboard-response","334","332596","0.0-3.0-1.165","","","Update","n","false"
"null","<div style=""font-size:60px;"">+</div>","null","html-keyboard-response","335","333097","0.0-3.0-0.166","","fixation","","",""
"1404","Set1/004a.jpg","78","image-keyboard-response","336","334502","0.0-3.0-1.166","","","Set_1_Only","n","true"
"null","<div style=""font-size:60px;"">+</div>","null","html-keyboard-response","337","335003","0.0-3.0-0.167","","fixation","","",""
"1756","Set1/097a.jpg","79","image-keyboard-response","338","336761","0.0-3.0-1.167","","","Update","n","false"
"null","<div style=""font-size:60px;"">+</div>","null","html-keyboard-response","339","337261","0.0-3.0-0.168","","fixation","","",""
"1845","Set1/130a.jpg","79","image-keyboard-response","340","339108","0.0-3.0-1.168","","","Update","n","false"
"null","<div style=""font-size:60px;"">+</div>","null","html-keyboard-response","341","339608","0.0-3.0-0.169","","fixation","","",""
"1858","Set1/068a.jpg","78","image-keyboard-response","342","341469","0.0-3.0-1.169","","","Repeat","n","true"
"null","<div style=""font-size:60px;"">+</div>","null","html-keyboard-response","343","341970","0.0-3.0-0.170","","fixation","","",""
"1207","Set1/137a.jpg","79","image-keyboard-response","344","343178","0.0-3.0-1.170","","","Update","n","false"
"null","<div style=""font-size:60px;"">+</div>","null","html-keyboard-response","345","343680","0.0-3.0-0.171","","fixation","","",""
"770","Set1/097a.jpg","79","image-keyboard-response","346","344451","0.0-3.0-1.171","","","Update","o","true"
"null","<div style=""font-size:60px;"">+</div>","null","html-keyboard-response","347","344952","0.0-3.0-0.172","","fixation","","",""
"1367","Set1/147a.jpg","79","image-keyboard-response","348","346322","0.0-3.0-1.172","","","Update","n","false"
"null","<div style=""font-size:60px;"">+</div>","null","html-keyboard-response","349","346822","0.0-3.0-0.173","","fixation","","",""
"606","Set1/155a.jpg","79","image-keyboard-response","350","347429","0.0-3.0-1.173","","","Update","o","true"
"null","<div style=""font-size:60px;"">+</div>","null","html-keyboard-response","351","347931","0.0-3.0-0.174","","fixation","","",""
"1260","Set1/002a.jpg","79","image-keyboard-response","352","349192","0.0-3.0-1.174","","","Set_1_Only","n","false"
"null","<div style=""font-size:60px;"">+</div>","null","html-keyboard-response","353","349694","0.0-3.0-0.175","","fixation","","",""
"1277","Set1/033a.jpg","79","image-keyboard-response","354","350972","0.0-3.0-1.175","","","Repeat","n","false"
"null","<div style=""font-size:60px;"">+</div>","null","html-keyboard-response","355","351473","0.0-3.0-0.176","","fixation","","",""
"2627","Set1/102a.jpg","78","image-keyboard-response","356","354102","0.0-3.0-1.176","","","Update","n","true"
"null","<div style=""font-size:60px;"">+</div>","null","html-keyboard-response","357","354603","0.0-3.0-0.177","","fixation","","",""
"1787","Set1/057a.jpg","78","image-keyboard-response","358","356392","0.0-3.0-1.177","","","Repeat","n","true"
"null","<div style=""font-size:60px;"">+</div>","null","html-keyboard-response","359","356893","0.0-3.0-0.178","","fixation","","",""
"934","Set1/147a.jpg","79","image-keyboard-response","360","357829","0.0-3.0-1.178","","","Update","o","true"
"null","<div style=""font-size:60px;"">+</div>","null","html-keyboard-response","361","358330","0.0-3.0-0.179","","fixation","","",""
"832","Set1/057a.jpg","79","image-keyboard-response","362","359164","0.0-3.0-1.179","","","Repeat","o","true"
"null","<div style=""font-size:60px;"">+</div>","null","html-keyboard-response","363","359664","0.0-3.0-0.180","","fixation","","",""
"1162","Set1/131a.jpg","79","image-keyboard-response","364","360827","0.0-3.0-1.180","","","Update","n","false"
"null","<div style=""font-size:60px;"">+</div>","null","html-keyboard-response","365","361329","0.0-3.0-0.181","","fixation","","",""
"1234","Set1/032a.jpg","79","image-keyboard-response","366","362565","0.0-3.0-1.181","","","Set_1_Only","n","false"
"null","<div style=""font-size:60px;"">+</div>","null","html-keyboard-response","367","363065","0.0-3.0-0.182","","fixation","","",""
"1023","Set1/065a.jpg","79","image-keyboard-response","368","364090","0.0-3.0-1.182","","","Repeat","n","false"
"null","<div style=""font-size:60px;"">+</div>","null","html-keyboard-response","369","364590","0.0-3.0-0.183","","fixation","","",""
"2390","Set1/149a.jpg","79","image-keyboard-response","370","366982","0.0-3.0-1.183","","","Update","n","false"
"null","<div style=""font-size:60px;"">+</div>","null","html-keyboard-response","371","367483","0.0-3.0-0.184","","fixation","","",""
"594","Set1/065a.jpg","79","image-keyboard-response","372","368078","0.0-3.0-1.184","","","Repeat","o","true"
"null","<div style=""font-size:60px;"">+</div>","null","html-keyboard-response","373","368579","0.0-3.0-0.185","","fixation","","",""
"1816","Set1/089a.jpg","79","image-keyboard-response","374","370397","0.0-3.0-1.185","","","Repeat","n","false"
"null","<div style=""font-size:60px;"">+</div>","null","html-keyboard-response","375","370897","0.0-3.0-0.186","","fixation","","",""
"1086","Set1/144a.jpg","79","image-keyboard-response","376","371984","0.0-3.0-1.186","","","Update","n","false"
"null","<div style=""font-size:60px;"">+</div>","null","html-keyboard-response","377","372485","0.0-3.0-0.187","","fixation","","",""
"3261","Set1/069a.jpg","79","image-keyboard-response","378","375748","0.0-3.0-1.187","","","Repeat","n","false"
"null","<div style=""font-size:60px;"">+</div>","null","html-keyboard-response","379","376249","0.0-3.0-0.188","","fixation","","",""
"8658","Set1/129a.jpg","79","image-keyboard-response","380","384909","0.0-3.0-1.188","","","Update","n","false"
"null","<div style=""font-size:60px;"">+</div>","null","html-keyboard-response","381","385410","0.0-3.0-0.189","","fixation","","",""
"731","Set1/032a.jpg","79","image-keyboard-response","382","386144","0.0-3.0-1.189","","","Set_1_Only","o","true"
"null","<div style=""font-size:60px;"">+</div>","null","html-keyboard-response","383","386644","0.0-3.0-0.190","","fixation","","",""
"1176","Set1/024a.jpg","79","image-keyboard-response","384","387820","0.0-3.0-1.190","","","Set_1_Only","n","false"
"null","<div style=""font-size:60px;"">+</div>","null","html-keyboard-response","385","388321","0.0-3.0-0.191","","fixation","","",""
"748","Set1/078a.jpg","79","image-keyboard-response","386","389070","0.0-3.0-1.191","","","Repeat","n","false"
"null","<div style=""font-size:60px;"">+</div>","null","html-keyboard-response","387","389571","0.0-3.0-0.192","","fixation","","",""
"942","Set1/103a.jpg","79","image-keyboard-response","388","390515","0.0-3.0-1.192","","","Update","n","false"
"null","<div style=""font-size:60px;"">+</div>","null","html-keyboard-response","389","391015","0.0-3.0-0.193","","fixation","","",""
"771","Set1/130a.jpg","79","image-keyboard-response","390","391788","0.0-3.0-1.193","","","Update","o","true"
"null","<div style=""font-size:60px;"">+</div>","null","html-keyboard-response","391","392288","0.0-3.0-0.194","","fixation","","",""
"1427","Set1/022a.jpg","78","image-keyboard-response","392","393716","0.0-3.0-1.194","","","Set_1_Only","n","true"
"null","<div style=""font-size:60px;"">+</div>","null","html-keyboard-response","393","394217","0.0-3.0-0.195","","fixation","","",""
"2341","Set1/124a.jpg","78","image-keyboard-response","394","396559","0.0-3.0-1.195","","","Update","n","true"
"null","<div style=""font-size:60px;"">+</div>","null","html-keyboard-response","395","397060","0.0-3.0-0.196","","fixation","","",""
"955","Set1/068a.jpg","79","image-keyboard-response","396","398018","0.0-3.0-1.196","","","Repeat","o","true"
"null","<div style=""font-size:60px;"">+</div>","null","html-keyboard-response","397","398518","0.0-3.0-0.197","","fixation","","",""
"596","Set1/078a.jpg","79","image-keyboard-response","398","399115","0.0-3.0-1.197","","","Repeat","o","true"
"null","<div style=""font-size:60px;"">+</div>","null","html-keyboard-response","399","399616","0.0-3.0-0.198","","fixation","","",""
"710","Set1/137a.jpg","79","image-keyboard-response","400","400328","0.0-3.0-1.198","","","Update","o","true"
"null","<div style=""font-size:60px;"">+</div>","null","html-keyboard-response","401","400828","0.0-3.0-0.199","","fixation","","",""
"1879","Set1/118a.jpg","79","image-keyboard-response","402","402708","0.0-3.0-1.199","","","Update","n","false"
"null","<div style=""font-size:60px;"">+</div>","null","html-keyboard-response","403","403209","0.0-3.0-0.200","","fixation","","",""
"590","Set1/149a.jpg","79","image-keyboard-response","404","403801","0.0-3.0-1.200","","","Update","o","true"
"null","<div style=""font-size:60px;"">+</div>","null","html-keyboard-response","405","404302","0.0-3.0-0.201","","fixation","","",""
"579","Set1/002a.jpg","79","image-keyboard-response","406","404883","0.0-3.0-1.201","","","Set_1_Only","o","true"
"null","<div style=""font-size:60px;"">+</div>","null","html-keyboard-response","407","405383","0.0-3.0-0.202","","fixation","","",""
"666","Set1/103a.jpg","79","image-keyboard-response","408","406050","0.0-3.0-1.202","","","Update","o","true"
"null","<div style=""font-size:60px;"">+</div>","null","html-keyboard-response","409","406552","0.0-3.0-0.203","","fixation","","",""
"802","Set1/012a.jpg","79","image-keyboard-response","410","407356","0.0-3.0-1.203","","","Set_1_Only","n","false"
"null","<div style=""font-size:60px;"">+</div>","null","html-keyboard-response","411","407856","0.0-3.0-0.204","","fixation","","",""
"1197","Set1/104a.jpg","79","image-keyboard-response","412","409054","0.0-3.0-1.204","","","Update","n","false"
"null","<div style=""font-size:60px;"">+</div>","null","html-keyboard-response","413","409555","0.0-3.0-0.205","","fixation","","",""
"1082","Set1/080a.jpg","79","image-keyboard-response","414","410647","0.0-3.0-1.205","","","Repeat","n","false"
"null","<div style=""font-size:60px;"">+</div>","null","html-keyboard-response","415","411148","0.0-3.0-0.206","","fixation","","",""
"1205","Set1/040a.jpg","79","image-keyboard-response","416","412355","0.0-3.0-1.206","","","Repeat","n","false"
"null","<div style=""font-size:60px;"">+</div>","null","html-keyboard-response","417","412855","0.0-3.0-0.207","","fixation","","",""
"1732","Set1/145a.jpg","78","image-keyboard-response","418","414588","0.0-3.0-1.207","","","Update","n","true"
"null","<div style=""font-size:60px;"">+</div>","null","html-keyboard-response","419","415089","0.0-3.0-0.208","","fixation","","",""
"804","Set1/004a.jpg","79","image-keyboard-response","420","415895","0.0-3.0-1.208","","","Set_1_Only","o","true"
"null","<div style=""font-size:60px;"">+</div>","null","html-keyboard-response","421","416395","0.0-3.0-0.209","","fixation","","",""
"2850","Set1/073a.jpg","79","image-keyboard-response","422","419247","0.0-3.0-1.209","","","Repeat","n","false"
"null","<div style=""font-size:60px;"">+</div>","null","html-keyboard-response","423","419747","0.0-3.0-0.210","","fixation","","",""
"595","Set1/144a.jpg","79","image-keyboard-response","424","420345","0.0-3.0-1.210","","","Update","o","true"
"null","<div style=""font-size:60px;"">+</div>","null","html-keyboard-response","425","420846","0.0-3.0-0.211","","fixation","","",""
"508","Set1/145a.jpg","79","image-keyboard-response","426","421356","0.0-3.0-1.211","","","Update","o","true"
"null","<div style=""font-size:60px;"">+</div>","null","html-keyboard-response","427","421860","0.0-3.0-0.212","","fixation","","",""
"505","Set1/124a.jpg","79","image-keyboard-response","428","422366","0.0-3.0-1.212","","","Update","o","true"
"null","<div style=""font-size:60px;"">+</div>","null","html-keyboard-response","429","422867","0.0-3.0-0.213","","fixation","","",""
"715","Set1/040a.jpg","79","image-keyboard-response","430","423585","0.0-3.0-1.213","","","Repeat","o","true"
"null","<div style=""font-size:60px;"">+</div>","null","html-keyboard-response","431","424086","0.0-3.0-0.214","","fixation","","",""
"670","Set1/069a.jpg","79","image-keyboard-response","432","424757","0.0-3.0-1.214","","","Repeat","o","true"
"null","<div style=""font-size:60px;"">+</div>","null","html-keyboard-response","433","425258","0.0-3.0-0.215","","fixation","","",""
"2076","Set1/143a.jpg","79","image-keyboard-response","434","427336","0.0-3.0-1.215","","","Update","n","false"
"null","<div style=""font-size:60px;"">+</div>","null","html-keyboard-response","435","427837","0.0-3.0-0.216","","fixation","","",""
"1094","Set1/024a.jpg","79","image-keyboard-response","436","428935","0.0-3.0-1.216","","","Set_1_Only","o","true"
"null","<div style=""font-size:60px;"">+</div>","null","html-keyboard-response","437","429435","0.0-3.0-0.217","","fixation","","",""
"3323","Set1/131a.jpg","79","image-keyboard-response","438","432760","0.0-3.0-1.217","","","Update","o","true"
"null","<div style=""font-size:60px;"">+</div>","null","html-keyboard-response","439","433261","0.0-3.0-0.218","","fixation","","",""
"2026","Set1/094a.jpg","78","image-keyboard-response","440","435288","0.0-3.0-1.218","","","Repeat","n","true"
"null","<div style=""font-size:60px;"">+</div>","null","html-keyboard-response","441","435789","0.0-3.0-0.219","","fixation","","",""
"822","Set1/104a.jpg","79","image-keyboard-response","442","436614","0.0-3.0-1.219","","","Update","o","true"
"null","<div style=""font-size:60px;"">+</div>","null","html-keyboard-response","443","437115","0.0-3.0-0.220","","fixation","","",""
"735","Set1/080a.jpg","79","image-keyboard-response","444","437852","0.0-3.0-1.220","","","Repeat","o","true"
"null","<div style=""font-size:60px;"">+</div>","null","html-keyboard-response","445","438352","0.0-3.0-0.221","","fixation","","",""
"625","Set1/060a.jpg","79","image-keyboard-response","446","438978","0.0-3.0-1.221","","","Repeat","o","true"
"null","<div style=""font-size:60px;"">+</div>","null","html-keyboard-response","447","439479","0.0-3.0-0.222","","fixation","","",""
"1267","Set1/129a.jpg","79","image-keyboard-response","448","440761","0.0-3.0-1.222","","","Update","o","true"
"null","<div style=""font-size:60px;"">+</div>","null","html-keyboard-response","449","441261","0.0-3.0-0.223","","fixation","","",""
"761","Set1/089a.jpg","79","image-keyboard-response","450","442025","0.0-3.0-1.223","","","Repeat","o","true"
"null","<div style=""font-size:60px;"">+</div>","null","html-keyboard-response","451","442525","0.0-3.0-0.224","","fixation","","",""
"706","Set1/159a.jpg","79","image-keyboard-response","452","443231","0.0-3.0-1.224","","","Update","o","true"
"null","<div style=""font-size:60px;"">+</div>","null","html-keyboard-response","453","443732","0.0-3.0-0.225","","fixation","","",""
"2752","Set1/135a.jpg","79","image-keyboard-response","454","446485","0.0-3.0-1.225","","","Update","n","false"
"null","<div style=""font-size:60px;"">+</div>","null","html-keyboard-response","455","446986","0.0-3.0-0.226","","fixation","","",""
"1871","Set1/116a.jpg","78","image-keyboard-response","456","448859","0.0-3.0-1.226","","","Update","n","true"
"null","<div style=""font-size:60px;"">+</div>","null","html-keyboard-response","457","449359","0.0-3.0-0.227","","fixation","","",""
"1139","Set1/102a.jpg","79","image-keyboard-response","458","450500","0.0-3.0-1.227","","","Update","o","true"
"null","<div style=""font-size:60px;"">+</div>","null","html-keyboard-response","459","451000","0.0-3.0-0.228","","fixation","","",""
"688","Set1/022a.jpg","79","image-keyboard-response","460","451690","0.0-3.0-1.228","","","Set_1_Only","o","true"
"null","<div style=""font-size:60px;"">+</div>","null","html-keyboard-response","461","452190","0.0-3.0-0.229","","fixation","","",""
"639","Set1/094a.jpg","79","image-keyboard-response","462","452833","0.0-3.0-1.229","","","Repeat","o","true"
"null","<div style=""font-size:60px;"">+</div>","null","html-keyboard-response","463","453333","0.0-3.0-0.230","","fixation","","",""
"640","Set1/118a.jpg","79","image-keyboard-response","464","453974","0.0-3.0-1.230","","","Update","o","true"
"null","<div style=""font-size:60px;"">+</div>","null","html-keyboard-response","465","454476","0.0-3.0-0.231","","fixation","","",""
"722","Set1/033a.jpg","79","image-keyboard-response","466","455199","0.0-3.0-1.231","","","Repeat","o","true"
"null","<div style=""font-size:60px;"">+</div>","null","html-keyboard-response","467","455700","0.0-3.0-0.232","","fixation","","",""
"748","Set1/117a.jpg","79","image-keyboard-response","468","456449","0.0-3.0-1.232","","","Update","o","true"
"null","<div style=""font-size:60px;"">+</div>","null","html-keyboard-response","469","456951","0.0-3.0-0.233","","fixation","","",""
"665","Set1/135a.jpg","79","image-keyboard-response","470","457618","0.0-3.0-1.233","","","Update","o","true"
"null","<div style=""font-size:60px;"">+</div>","null","html-keyboard-response","471","458118","0.0-3.0-0.234","","fixation","","",""
"839","Set1/116a.jpg","79","image-keyboard-response","472","458959","0.0-3.0-1.234","","","Update","o","true"
"null","<div style=""font-size:60px;"">+</div>","null","html-keyboard-response","473","459459","0.0-3.0-0.235","","fixation","","",""
"679","Set1/143a.jpg","79","image-keyboard-response","474","460140","0.0-3.0-1.235","","","Update","o","true"
"null","<div style=""font-size:60px;"">+</div>","null","html-keyboard-response","475","460641","0.0-3.0-0.236","","fixation","","",""
"856","Set1/074a.jpg","79","image-keyboard-response","476","461499","0.0-3.0-1.236","","","Repeat","o","true"
"null","<div style=""font-size:60px;"">+</div>","null","html-keyboard-response","477","461999","0.0-3.0-0.237","","fixation","","",""
"927","Set1/012a.jpg","79","image-keyboard-response","478","462928","0.0-3.0-1.237","","","Set_1_Only","o","true"
"null","<div style=""font-size:60px;"">+</div>","null","html-keyboard-response","479","463428","0.0-3.0-0.238","","fixation","","",""
"883","Set1/062a.jpg","79","image-keyboard-response","480","464312","0.0-3.0-1.238","","","Repeat","o","true"
"null","<div style=""font-size:60px;"">+</div>","null","html-keyboard-response","481","464813","0.0-3.0-0.239","","fixation","","",""
"746","Set1/073a.jpg","79","image-keyboard-response","482","465560","0.0-3.0-1.239","","","Repeat","o","true"
"null","<div style=""font-size:60px;"">+</div>","null","html-keyboard-response","483","466067","0.0-3.0-0.240","","fixation","","",""
"2349","Set1/029a.jpg","79","image-keyboard-response","484","468417","0.0-3.0-1.240","","","Set_1_Only","n","false"
"null","<div style=""font-size:60px;"">+</div>","null","html-keyboard-response","485","468918","0.0-3.0-0.241","","fixation","","",""
"1152","Set1/098a.jpg","79","image-keyboard-response","486","470071","0.0-3.0-1.241","","","Update","n","false"
"null","<div style=""font-size:60px;"">+</div>","null","html-keyboard-response","487","470572","0.0-3.0-0.242","","fixation","","",""
"2077","Set1/086a.jpg","78","image-keyboard-response","488","472650","0.0-3.0-1.242","","","Repeat","n","true"
"null","<div style=""font-size:60px;"">+</div>","null","html-keyboard-response","489","473153","0.0-3.0-0.243","","fixation","","",""
"806","Set1/070a.jpg","79","image-keyboard-response","490","473961","0.0-3.0-1.243","","","Repeat","n","false"
"null","<div style=""font-size:60px;"">+</div>","null","html-keyboard-response","491","474461","0.0-3.0-0.244","","fixation","","",""
"3460","Set1/091a.jpg","78","image-keyboard-response","492","477924","0.0-3.0-1.244","","","Repeat","n","true"
"null","<div style=""font-size:60px;"">+</div>","null","html-keyboard-response","493","478425","0.0-3.0-0.245","","fixation","","",""
"1636","Set1/043a.jpg","78","image-keyboard-response","494","480063","0.0-3.0-1.245","","","Repeat","n","true"
"null","<div style=""font-size:60px;"">+</div>","null","html-keyboard-response","495","480564","0.0-3.0-0.246","","fixation","","",""
"2611","Set1/083a.jpg","78","image-keyboard-response","496","483177","0.0-3.0-1.246","","","Repeat","n","true"
"null","<div style=""font-size:60px;"">+</div>","null","html-keyboard-response","497","483678","0.0-3.0-0.247","","fixation","","",""
"1131","Set1/011a.jpg","79","image-keyboard-response","498","484812","0.0-3.0-1.247","","","Set_1_Only","n","false"
"null","<div style=""font-size:60px;"">+</div>","null","html-keyboard-response","499","485312","0.0-3.0-0.248","","fixation","","",""
"647","Set1/142a.jpg","79","image-keyboard-response","500","485961","0.0-3.0-1.248","","","Update","n","false"
"null","<div style=""font-size:60px;"">+</div>","null","html-keyboard-response","501","486461","0.0-3.0-0.249","","fixation","","",""
"888","Set1/061a.jpg","79","image-keyboard-response","502","487350","0.0-3.0-1.249","","","Repeat","n","false"
"null","<div style=""font-size:60px;"">+</div>","null","html-keyboard-response","503","487851","0.0-3.0-0.250","","fixation","","",""
"845","Set1/007a.jpg","79","image-keyboard-response","504","488697","0.0-3.0-1.250","","","Set_1_Only","n","false"
"null","<div style=""font-size:60px;"">+</div>","null","html-keyboard-response","505","489199","0.0-3.0-0.251","","fixation","","",""
"974","Set1/039a.jpg","79","image-keyboard-response","506","490174","0.0-3.0-1.251","","","Repeat","n","false"
"null","<div style=""font-size:60px;"">+</div>","null","html-keyboard-response","507","490674","0.0-3.0-0.252","","fixation","","",""
"1299","Set1/023a.jpg","79","image-keyboard-response","508","491975","0.0-3.0-1.252","","","Set_1_Only","n","false"
"null","<div style=""font-size:60px;"">+</div>","null","html-keyboard-response","509","492475","0.0-3.0-0.253","","fixation","","",""
"952","Set1/001a.jpg","79","image-keyboard-response","510","493428","0.0-3.0-1.253","","","Set_1_Only","n","false"
"null","<div style=""font-size:60px;"">+</div>","null","html-keyboard-response","511","493929","0.0-3.0-0.254","","fixation","","",""
"997","Set1/038a.jpg","79","image-keyboard-response","512","494928","0.0-3.0-1.254","","","Repeat","n","false"
"null","<div style=""font-size:60px;"">+</div>","null","html-keyboard-response","513","495428","0.0-3.0-0.255","","fixation","","",""
"2361","Set1/126a.jpg","79","image-keyboard-response","514","497791","0.0-3.0-1.255","","","Update","n","false"
"null","<div style=""font-size:60px;"">+</div>","null","html-keyboard-response","515","498293","0.0-3.0-0.256","","fixation","","",""
"1945","Set1/021a.jpg","79","image-keyboard-response","516","500248","0.0-3.0-1.256","","","Set_1_Only","n","false"
"null","<div style=""font-size:60px;"">+</div>","null","html-keyboard-response","517","500748","0.0-3.0-0.257","","fixation","","",""
"1123","Set1/109a.jpg","79","image-keyboard-response","518","501873","0.0-3.0-1.257","","","Update","n","false"
"null","<div style=""font-size:60px;"">+</div>","null","html-keyboard-response","519","502373","0.0-3.0-0.258","","fixation","","",""
"2484","Set1/099a.jpg","78","image-keyboard-response","520","504859","0.0-3.0-1.258","","","Update","n","true"
"null","<div style=""font-size:60px;"">+</div>","null","html-keyboard-response","521","505360","0.0-3.0-0.259","","fixation","","",""
"1856","Set1/122a.jpg","79","image-keyboard-response","522","507217","0.0-3.0-1.259","","","Update","n","false"
"null","<div style=""font-size:60px;"">+</div>","null","html-keyboard-response","523","507718","0.0-3.0-0.260","","fixation","","",""
"624","Set1/023a.jpg","79","image-keyboard-response","524","508346","0.0-3.0-1.260","","","Set_1_Only","o","true"
"null","<div style=""font-size:60px;"">+</div>","null","html-keyboard-response","525","508847","0.0-3.0-0.261","","fixation","","",""
"1897","Set1/017a.jpg","78","image-keyboard-response","526","510745","0.0-3.0-1.261","","","Set_1_Only","n","true"
"null","<div style=""font-size:60px;"">+</div>","null","html-keyboard-response","527","511247","0.0-3.0-0.262","","fixation","","",""
"1208","Set1/132a.jpg","79","image-keyboard-response","528","512456","0.0-3.0-1.262","","","Update","n","false"
"null","<div style=""font-size:60px;"">+</div>","null","html-keyboard-response","529","512957","0.0-3.0-0.263","","fixation","","",""
"2360","Set1/042a.jpg","78","image-keyboard-response","530","515318","0.0-3.0-1.263","","","Repeat","n","true"
"null","<div style=""font-size:60px;"">+</div>","null","html-keyboard-response","531","515820","0.0-3.0-0.264","","fixation","","",""
"1544","Set1/087a.jpg","79","image-keyboard-response","532","517367","0.0-3.0-1.264","","","Repeat","n","false"
"null","<div style=""font-size:60px;"">+</div>","null","html-keyboard-response","533","517869","0.0-3.0-0.265","","fixation","","",""
"1460","Set1/101a.jpg","79","image-keyboard-response","534","519330","0.0-3.0-1.265","","","Update","n","false"
"null","<div style=""font-size:60px;"">+</div>","null","html-keyboard-response","535","519831","0.0-3.0-0.266","","fixation","","",""
"1100","Set1/066a.jpg","79","image-keyboard-response","536","520932","0.0-3.0-1.266","","","Repeat","n","false"
"null","<div style=""font-size:60px;"">+</div>","null","html-keyboard-response","537","521433","0.0-3.0-0.267","","fixation","","",""
"1400","Set1/091a.jpg","79","image-keyboard-response","538","522835","0.0-3.0-1.267","","","Repeat","o","true"
"null","<div style=""font-size:60px;"">+</div>","null","html-keyboard-response","539","523336","0.0-3.0-0.268","","fixation","","",""
"1670","Set1/077a.jpg","78","image-keyboard-response","540","525008","0.0-3.0-1.268","","","Repeat","n","true"
"null","<div style=""font-size:60px;"">+</div>","null","html-keyboard-response","541","525508","0.0-3.0-0.269","","fixation","","",""
"833","Set1/042a.jpg","79","image-keyboard-response","542","526345","0.0-3.0-1.269","","","Repeat","o","true"
"null","<div style=""font-size:60px;"">+</div>","null","html-keyboard-response","543","526846","0.0-3.0-0.270","","fixation","","",""
"1443","Set1/018a.jpg","79","image-keyboard-response","544","528290","0.0-3.0-1.270","","","Set_1_Only","n","false"
"null","<div style=""font-size:60px;"">+</div>","null","html-keyboard-response","545","528792","0.0-3.0-0.271","","fixation","","",""
"841","Set1/058a.jpg","79","image-keyboard-response","546","529635","0.0-3.0-1.271","","","Repeat","n","false"
"null","<div style=""font-size:60px;"">+</div>","null","html-keyboard-response","547","530135","0.0-3.0-0.272","","fixation","","",""
"940","Set1/132a.jpg","79","image-keyboard-response","548","531078","0.0-3.0-1.272","","","Update","o","true"
"null","<div style=""font-size:60px;"">+</div>","null","html-keyboard-response","549","531579","0.0-3.0-0.273","","fixation","","",""
"833","Set1/038a.jpg","79","image-keyboard-response","550","532414","0.0-3.0-1.273","","","Repeat","o","true"
"null","<div style=""font-size:60px;"">+</div>","null","html-keyboard-response","551","532915","0.0-3.0-0.274","","fixation","","",""
"563","Set1/066a.jpg","79","image-keyboard-response","552","533480","0.0-3.0-1.274","","","Repeat","o","true"
"null","<div style=""font-size:60px;"">+</div>","null","html-keyboard-response","553","533980","0.0-3.0-0.275","","fixation","","",""
"845","Set1/099a.jpg","79","image-keyboard-response","554","534826","0.0-3.0-1.275","","","Update","o","true"
"null","<div style=""font-size:60px;"">+</div>","null","html-keyboard-response","555","535327","0.0-3.0-0.276","","fixation","","",""
"697","Set1/126a.jpg","79","image-keyboard-response","556","536026","0.0-3.0-1.276","","","Update","o","true"
"null","<div style=""font-size:60px;"">+</div>","null","html-keyboard-response","557","536526","0.0-3.0-0.277","","fixation","","",""
"3399","Set1/009a.jpg","78","image-keyboard-response","558","539926","0.0-3.0-1.277","","","Set_1_Only","n","true"
"null","<div style=""font-size:60px;"">+</div>","null","html-keyboard-response","559","540427","0.0-3.0-0.278","","fixation","","",""
"1418","Set1/046a.jpg","78","image-keyboard-response","560","541847","0.0-3.0-1.278","","","Repeat","n","true"
"null","<div style=""font-size:60px;"">+</div>","null","html-keyboard-response","561","542348","0.0-3.0-0.279","","fixation","","",""
"785","Set1/039a.jpg","79","image-keyboard-response","562","543136","0.0-3.0-1.279","","","Repeat","o","true"
"null","<div style=""font-size:60px;"">+</div>","null","html-keyboard-response","563","543638","0.0-3.0-0.280","","fixation","","",""
"676","Set1/001a.jpg","79","image-keyboard-response","564","544315","0.0-3.0-1.280","","","Set_1_Only","o","true"
"null","<div style=""font-size:60px;"">+</div>","null","html-keyboard-response","565","544816","0.0-3.0-0.281","","fixation","","",""
"625","Set1/122a.jpg","79","image-keyboard-response","566","545442","0.0-3.0-1.281","","","Update","o","true"
"null","<div style=""font-size:60px;"">+</div>","null","html-keyboard-response","567","545943","0.0-3.0-0.282","","fixation","","",""
"942","Set1/086a.jpg","79","image-keyboard-response","568","546887","0.0-3.0-1.282","","","Repeat","o","true"
"null","<div style=""font-size:60px;"">+</div>","null","html-keyboard-response","569","547387","0.0-3.0-0.283","","fixation","","",""
"874","Set1/046a.jpg","79","image-keyboard-response","570","548262","0.0-3.0-1.283","","","Repeat","o","true"
"null","<div style=""font-size:60px;"">+</div>","null","html-keyboard-response","571","548763","0.0-3.0-0.284","","fixation","","",""
"1349","Set1/043a.jpg","79","image-keyboard-response","572","550115","0.0-3.0-1.284","","","Repeat","o","true"
"null","<div style=""font-size:60px;"">+</div>","null","html-keyboard-response","573","550615","0.0-3.0-0.285","","fixation","","",""
"1694","Set1/016a.jpg","79","image-keyboard-response","574","552311","0.0-3.0-1.285","","","Set_1_Only","n","false"
"null","<div style=""font-size:60px;"">+</div>","null","html-keyboard-response","575","552812","0.0-3.0-0.286","","fixation","","",""
"1214","Set1/090a.jpg","79","image-keyboard-response","576","554027","0.0-3.0-1.286","","","Repeat","n","false"
"null","<div style=""font-size:60px;"">+</div>","null","html-keyboard-response","577","554528","0.0-3.0-0.287","","fixation","","",""
"1302","Set1/141a.jpg","79","image-keyboard-response","578","555833","0.0-3.0-1.287","","","Update","n","false"
"null","<div style=""font-size:60px;"">+</div>","null","html-keyboard-response","579","556334","0.0-3.0-0.288","","fixation","","",""
"763","Set1/090a.jpg","79","image-keyboard-response","580","557099","0.0-3.0-1.288","","","Repeat","o","true"
"null","<div style=""font-size:60px;"">+</div>","null","html-keyboard-response","581","557604","0.0-3.0-0.289","","fixation","","",""
"864","Set1/139a.jpg","79","image-keyboard-response","582","558470","0.0-3.0-1.289","","","Update","n","false"
"null","<div style=""font-size:60px;"">+</div>","null","html-keyboard-response","583","558970","0.0-3.0-0.290","","fixation","","",""
"916","Set1/101a.jpg","79","image-keyboard-response","584","559887","0.0-3.0-1.290","","","Update","o","true"
"null","<div style=""font-size:60px;"">+</div>","null","html-keyboard-response","585","560388","0.0-3.0-0.291","","fixation","","",""
"2492","Set1/092a.jpg","79","image-keyboard-response","586","562881","0.0-3.0-1.291","","","Repeat","n","false"
"null","<div style=""font-size:60px;"">+</div>","null","html-keyboard-response","587","563382","0.0-3.0-0.292","","fixation","","",""
"720","Set1/087a.jpg","79","image-keyboard-response","588","564104","0.0-3.0-1.292","","","Repeat","o","true"
"null","<div style=""font-size:60px;"">+</div>","null","html-keyboard-response","589","564605","0.0-3.0-0.293","","fixation","","",""
"2360","Set1/034a.jpg","79","image-keyboard-response","590","566967","0.0-3.0-1.293","","","Repeat","n","false"
"null","<div style=""font-size:60px;"">+</div>","null","html-keyboard-response","591","567469","0.0-3.0-0.294","","fixation","","",""
"790","Set1/153a.jpg","79","image-keyboard-response","592","568261","0.0-3.0-1.294","","","Update","n","false"
"null","<div style=""font-size:60px;"">+</div>","null","html-keyboard-response","593","568762","0.0-3.0-0.295","","fixation","","",""
"797","Set1/092a.jpg","79","image-keyboard-response","594","569560","0.0-3.0-1.295","","","Repeat","o","true"
"null","<div style=""font-size:60px;"">+</div>","null","html-keyboard-response","595","570061","0.0-3.0-0.296","","fixation","","",""
"1016","Set1/077a.jpg","79","image-keyboard-response","596","571078","0.0-3.0-1.296","","","Repeat","o","true"
"null","<div style=""font-size:60px;"">+</div>","null","html-keyboard-response","597","571580","0.0-3.0-0.297","","fixation","","",""
"1582","Set1/112a.jpg","78","image-keyboard-response","598","573163","0.0-3.0-1.297","","","Update","n","true"
"null","<div style=""font-size:60px;"">+</div>","null","html-keyboard-response","599","573665","0.0-3.0-0.298","","fixation","","",""
"683","Set1/018a.jpg","79","image-keyboard-response","600","574350","0.0-3.0-1.298","","","Set_1_Only","o","true"
"null","<div style=""font-size:60px;"">+</div>","null","html-keyboard-response","601","574851","0.0-3.0-0.299","","fixation","","",""
"563","Set1/139a.jpg","79","image-keyboard-response","602","575415","0.0-3.0-1.299","","","Update","o","true"
"null","<div style=""font-size:60px;"">+</div>","null","html-keyboard-response","603","575916","0.0-3.0-0.300","","fixation","","",""
"724","Set1/153a.jpg","79","image-keyboard-response","604","576641","0.0-3.0-1.300","","","Update","o","true"
"null","<div style=""font-size:60px;"">+</div>","null","html-keyboard-response","605","577142","0.0-3.0-0.301","","fixation","","",""
"867","Set1/017a.jpg","79","image-keyboard-response","606","578011","0.0-3.0-1.301","","","Set_1_Only","o","true"
"null","<div style=""font-size:60px;"">+</div>","null","html-keyboard-response","607","578512","0.0-3.0-0.302","","fixation","","",""
"650","Set1/112a.jpg","79","image-keyboard-response","608","579164","0.0-3.0-1.302","","","Update","o","true"
"null","<div style=""font-size:60px;"">+</div>","null","html-keyboard-response","609","579664","0.0-3.0-0.303","","fixation","","",""
"778","Set1/109a.jpg","79","image-keyboard-response","610","580443","0.0-3.0-1.303","","","Update","o","true"
"null","<div style=""font-size:60px;"">+</div>","null","html-keyboard-response","611","580944","0.0-3.0-0.304","","fixation","","",""
"531","Set1/021a.jpg","79","image-keyboard-response","612","581477","0.0-3.0-1.304","","","Set_1_Only","o","true"
"null","<div style=""font-size:60px;"">+</div>","null","html-keyboard-response","613","581977","0.0-3.0-0.305","","fixation","","",""
"664","Set1/142a.jpg","79","image-keyboard-response","614","582643","0.0-3.0-1.305","","","Update","o","true"
"null","<div style=""font-size:60px;"">+</div>","null","html-keyboard-response","615","583144","0.0-3.0-0.306","","fixation","","",""
"1687","Set1/113a.jpg","79","image-keyboard-response","616","584833","0.0-3.0-1.306","","","Update","n","false"
"null","<div style=""font-size:60px;"">+</div>","null","html-keyboard-response","617","585334","0.0-3.0-0.307","","fixation","","",""
"1019","Set1/016a.jpg","79","image-keyboard-response","618","586355","0.0-3.0-1.307","","","Set_1_Only","o","true"
"null","<div style=""font-size:60px;"">+</div>","null","html-keyboard-response","619","586856","0.0-3.0-0.308","","fixation","","",""
"1974","Set1/061a.jpg","79","image-keyboard-response","620","588833","0.0-3.0-1.308","","","Repeat","o","true"
"null","<div style=""font-size:60px;"">+</div>","null","html-keyboard-response","621","589333","0.0-3.0-0.309","","fixation","","",""
"698","Set1/009a.jpg","79","image-keyboard-response","622","590033","0.0-3.0-1.309","","","Set_1_Only","o","true"
"null","<div style=""font-size:60px;"">+</div>","null","html-keyboard-response","623","590533","0.0-3.0-0.310","","fixation","","",""
"1314","Set1/141a.jpg","79","image-keyboard-response","624","591850","0.0-3.0-1.310","","","Update","o","true"
"null","<div style=""font-size:60px;"">+</div>","null","html-keyboard-response","625","592351","0.0-3.0-0.311","","fixation","","",""
"623","Set1/011a.jpg","79","image-keyboard-response","626","592975","0.0-3.0-1.311","","","Set_1_Only","o","true"
"null","<div style=""font-size:60px;"">+</div>","null","html-keyboard-response","627","593476","0.0-3.0-0.312","","fixation","","",""
"877","Set1/113a.jpg","79","image-keyboard-response","628","594355","0.0-3.0-1.312","","","Update","o","true"
"null","<div style=""font-size:60px;"">+</div>","null","html-keyboard-response","629","594856","0.0-3.0-0.313","","fixation","","",""
"603","Set1/058a.jpg","79","image-keyboard-response","630","595462","0.0-3.0-1.313","","","Repeat","o","true"
"null","<div style=""font-size:60px;"">+</div>","null","html-keyboard-response","631","595963","0.0-3.0-0.314","","fixation","","",""
"730","Set1/083a.jpg","79","image-keyboard-response","632","596695","0.0-3.0-1.314","","","Repeat","o","true"
"null","<div style=""font-size:60px;"">+</div>","null","html-keyboard-response","633","597196","0.0-3.0-0.315","","fixation","","",""
"714","Set1/029a.jpg","79","image-keyboard-response","634","597911","0.0-3.0-1.315","","","Set_1_Only","o","true"
"null","<div style=""font-size:60px;"">+</div>","null","html-keyboard-response","635","598412","0.0-3.0-0.316","","fixation","","",""
"661","Set1/034a.jpg","79","image-keyboard-response","636","599074","0.0-3.0-1.316","","","Repeat","o","true"
"null","<div style=""font-size:60px;"">+</div>","null","html-keyboard-response","637","599576","0.0-3.0-0.317","","fixation","","",""
"569","Set1/070a.jpg","79","image-keyboard-response","638","600146","0.0-3.0-1.317","","","Repeat","o","true"
"null","<div style=""font-size:60px;"">+</div>","null","html-keyboard-response","639","600647","0.0-3.0-0.318","","fixation","","",""
"544","Set1/098a.jpg","79","image-keyboard-response","640","601192","0.0-3.0-1.318","","","Update","o","true"
"null","<div style=""font-size:60px;"">+</div>","null","html-keyboard-response","641","601693","0.0-3.0-0.319","","fixation","","",""
"655","Set1/007a.jpg","79","image-keyboard-response","642","602349","0.0-3.0-1.319","","","Set_1_Only","o","true"
