"rt","stimulus","key_press","trial_type","trial_index","time_elapsed","internal_node_id","responses","test_part","stim_type","correct_response","correct"
"1968","Press any key to begin.","77","html-keyboard-response","0","1988","0.0-0.0","","","","",""
"5250","","","survey-text","1","7243","0.0-1.0","{""Q0"":""\""Test128225\"""",""Q1"":""""}","","","",""
"23479","<p>For this phase you will see two similar images side by side on the screen I want you to tell us which of the items you have seen before in any of the previous sets of images. </p><p>If you have only seen the image on the left you will press the 'L' key on your keyboard.</p>If you have only seen the image on the right you will press the 'R' key on your keyboard.</p>If you have previously seen both of the images you will press the 'B' key on your keyboard.</p>If you have not seen either image you will press the 'N' key on your keyboard.</p><div style='width: 700px;'></div><p>Press any key to begin.</p>","77","html-keyboard-response","2","30724","0.0-2.0","","","","",""
"null","<div style=""font-size:60px;"">+</div>","null","html-keyboard-response","3","33227","0.0-3.0-0.0","","fixation","","",""
"3476","b_a montage/ba_038.jpg","76","image-keyboard-response","4","36707","0.0-3.0-1.0","","","Repeat","r","false"
"null","<div style=""font-size:60px;"">+</div>","null","html-keyboard-response","5","37208","0.0-3.0-0.1","","fixation","","",""
"2408","a_b new/ab_008.jpg","78","image-keyboard-response","6","39617","0.0-3.0-1.1","","","Neither","n","true"
"null","<div style=""font-size:60px;"">+</div>","null","html-keyboard-response","7","40118","0.0-3.0-0.2","","fixation","","",""
"3055","a_b montage/ab_109.jpg","76","image-keyboard-response","8","43174","0.0-3.0-1.2","","","Update","b","false"
"null","<div style=""font-size:60px;"">+</div>","null","html-keyboard-response","9","43675","0.0-3.0-0.3","","fixation","","",""
"1588","a_b montage/ab_088.jpg","76","image-keyboard-response","10","45265","0.0-3.0-1.3","","","Repeat","l","true"
"null","<div style=""font-size:60px;"">+</div>","null","html-keyboard-response","11","45766","0.0-3.0-0.4","","fixation","","",""
"1874","a_b montage/ab_067.jpg","76","image-keyboard-response","12","47641","0.0-3.0-1.4","","","Repeat","l","true"
"null","<div style=""font-size:60px;"">+</div>","null","html-keyboard-response","13","48142","0.0-3.0-0.5","","fixation","","",""
"1514","b_a montage/ba_174.jpg","76","image-keyboard-response","14","49657","0.0-3.0-1.5","","","Set_2_Only","r","false"
"null","<div style=""font-size:60px;"">+</div>","null","html-keyboard-response","15","50158","0.0-3.0-0.6","","fixation","","",""
"1269","a_b montage/ab_103.jpg","76","image-keyboard-response","16","51429","0.0-3.0-1.6","","","Update","b","false"
"null","<div style=""font-size:60px;"">+</div>","null","html-keyboard-response","17","51929","0.0-3.0-0.7","","fixation","","",""
"2783","a_b montage/ab_129.jpg","76","image-keyboard-response","18","54713","0.0-3.0-1.7","","","Update","b","false"
"null","<div style=""font-size:60px;"">+</div>","null","html-keyboard-response","19","55214","0.0-3.0-0.8","","fixation","","",""
"1515","a_b montage/ab_130.jpg","76","image-keyboard-response","20","56731","0.0-3.0-1.8","","","Update","b","false"
"null","<div style=""font-size:60px;"">+</div>","null","html-keyboard-response","21","57232","0.0-3.0-0.9","","fixation","","",""
"2465","a_b montage/ab_181.jpg","78","image-keyboard-response","22","59698","0.0-3.0-1.9","","","Set_2_Only","l","false"
"null","<div style=""font-size:60px;"">+</div>","null","html-keyboard-response","23","60199","0.0-3.0-0.10","","fixation","","",""
"1487","a_b montage/ab_179.jpg","78","image-keyboard-response","24","61688","0.0-3.0-1.10","","","Set_2_Only","l","false"
"null","<div style=""font-size:60px;"">+</div>","null","html-keyboard-response","25","62188","0.0-3.0-0.11","","fixation","","",""
"2245","a_b new/ab_016.jpg","78","image-keyboard-response","26","64434","0.0-3.0-1.11","","","Neither","n","true"
"null","<div style=""font-size:60px;"">+</div>","null","html-keyboard-response","27","64935","0.0-3.0-0.12","","fixation","","",""
"2869","a_b montage/ab_153.jpg","76","image-keyboard-response","28","67810","0.0-3.0-1.12","","","Update","b","false"
"null","<div style=""font-size:60px;"">+</div>","null","html-keyboard-response","29","68310","0.0-3.0-0.13","","fixation","","",""
"2553","b_a montage/ba_009.jpg","76","image-keyboard-response","30","70865","0.0-3.0-1.13","","","Set_1_Only","r","false"
"null","<div style=""font-size:60px;"">+</div>","null","html-keyboard-response","31","71367","0.0-3.0-0.14","","fixation","","",""
"2016","a_b montage/ab_141.jpg","76","image-keyboard-response","32","73385","0.0-3.0-1.14","","","Update","b","false"
"null","<div style=""font-size:60px;"">+</div>","null","html-keyboard-response","33","73886","0.0-3.0-0.15","","fixation","","",""
"2071","a_b montage/ab_079.jpg","76","image-keyboard-response","34","75959","0.0-3.0-1.15","","","Repeat","l","true"
"null","<div style=""font-size:60px;"">+</div>","null","html-keyboard-response","35","76459","0.0-3.0-0.16","","fixation","","",""
"2342","b_a montage/ba_176.jpg","78","image-keyboard-response","36","78803","0.0-3.0-1.16","","","Set_2_Only","r","false"
"null","<div style=""font-size:60px;"">+</div>","null","html-keyboard-response","37","79304","0.0-3.0-0.17","","fixation","","",""
"1590","a_b montage/ab_017.jpg","76","image-keyboard-response","38","80896","0.0-3.0-1.17","","","Set_1_Only","l","true"
"null","<div style=""font-size:60px;"">+</div>","null","html-keyboard-response","39","81398","0.0-3.0-0.18","","fixation","","",""
"2330","a_b montage/ab_069.jpg","76","image-keyboard-response","40","83729","0.0-3.0-1.18","","","Repeat","l","true"
"null","<div style=""font-size:60px;"">+</div>","null","html-keyboard-response","41","84231","0.0-3.0-0.19","","fixation","","",""
"2066","a_b montage/ab_100.jpg","76","image-keyboard-response","42","86298","0.0-3.0-1.19","","","Update","b","false"
"null","<div style=""font-size:60px;"">+</div>","null","html-keyboard-response","43","86798","0.0-3.0-0.20","","fixation","","",""
"2344","a_b new/ab_001.jpg","78","image-keyboard-response","44","89144","0.0-3.0-1.20","","","Neither","n","true"
"null","<div style=""font-size:60px;"">+</div>","null","html-keyboard-response","45","89645","0.0-3.0-0.21","","fixation","","",""
"3219","b_a montage/ba_013.jpg","82","image-keyboard-response","46","92865","0.0-3.0-1.21","","","Set_1_Only","r","true"
"null","<div style=""font-size:60px;"">+</div>","null","html-keyboard-response","47","93366","0.0-3.0-0.22","","fixation","","",""
"2615","a_b montage/ab_066.jpg","76","image-keyboard-response","48","95986","0.0-3.0-1.22","","","Repeat","l","true"
"null","<div style=""font-size:60px;"">+</div>","null","html-keyboard-response","49","96486","0.0-3.0-0.23","","fixation","","",""
"2159","b_a montage/ba_041.jpg","82","image-keyboard-response","50","98646","0.0-3.0-1.23","","","Repeat","r","true"
"null","<div style=""font-size:60px;"">+</div>","null","html-keyboard-response","51","99147","0.0-3.0-0.24","","fixation","","",""
"2208","b_a montage/ba_043.jpg","66","image-keyboard-response","52","101357","0.0-3.0-1.24","","","Repeat","r","false"
"null","<div style=""font-size:60px;"">+</div>","null","html-keyboard-response","53","101858","0.0-3.0-0.25","","fixation","","",""
"3230","a_b montage/ab_080.jpg","76","image-keyboard-response","54","105089","0.0-3.0-1.25","","","Repeat","l","true"
"null","<div style=""font-size:60px;"">+</div>","null","html-keyboard-response","55","105590","0.0-3.0-0.26","","fixation","","",""
"2413","a_b montage/ab_131.jpg","66","image-keyboard-response","56","108005","0.0-3.0-1.26","","","Update","b","true"
"null","<div style=""font-size:60px;"">+</div>","null","html-keyboard-response","57","108507","0.0-3.0-0.27","","fixation","","",""
"2539","a_b montage/ab_147.jpg","66","image-keyboard-response","58","111048","0.0-3.0-1.27","","","Update","b","true"
"null","<div style=""font-size:60px;"">+</div>","null","html-keyboard-response","59","111549","0.0-3.0-0.28","","fixation","","",""
"3062","b_a montage/ba_047.jpg","82","image-keyboard-response","60","114613","0.0-3.0-1.28","","","Repeat","r","true"
"null","<div style=""font-size:60px;"">+</div>","null","html-keyboard-response","61","115114","0.0-3.0-0.29","","fixation","","",""
"2314","b_a montage/ba_168.jpg","78","image-keyboard-response","62","117431","0.0-3.0-1.29","","","Set_2_Only","r","false"
"null","<div style=""font-size:60px;"">+</div>","null","html-keyboard-response","63","117933","0.0-3.0-0.30","","fixation","","",""
"3118","a_b montage/ab_104.jpg","76","image-keyboard-response","64","121052","0.0-3.0-1.30","","","Update","b","false"
"null","<div style=""font-size:60px;"">+</div>","null","html-keyboard-response","65","121554","0.0-3.0-0.31","","fixation","","",""
"2027","a_b montage/ab_159.jpg","76","image-keyboard-response","66","123583","0.0-3.0-1.31","","","Update","b","false"
"null","<div style=""font-size:60px;"">+</div>","null","html-keyboard-response","67","124084","0.0-3.0-0.32","","fixation","","",""
"3335","a_b montage/ab_091.jpg","76","image-keyboard-response","68","127420","0.0-3.0-1.32","","","Repeat","l","true"
"null","<div style=""font-size:60px;"">+</div>","null","html-keyboard-response","69","127926","0.0-3.0-0.33","","fixation","","",""
"2071","a_b montage/ab_185.jpg","78","image-keyboard-response","70","129999","0.0-3.0-1.33","","","Set_2_Only","l","false"
"null","<div style=""font-size:60px;"">+</div>","null","html-keyboard-response","71","130500","0.0-3.0-0.34","","fixation","","",""
"3866","a_b montage/ab_107.jpg","66","image-keyboard-response","72","134368","0.0-3.0-1.34","","","Update","b","true"
"null","<div style=""font-size:60px;"">+</div>","null","html-keyboard-response","73","134868","0.0-3.0-0.35","","fixation","","",""
"1736","b_a montage/ba_163.jpg","78","image-keyboard-response","74","136606","0.0-3.0-1.35","","","Set_2_Only","r","false"
"null","<div style=""font-size:60px;"">+</div>","null","html-keyboard-response","75","137107","0.0-3.0-0.36","","fixation","","",""
"4237","a_b new/ab_011.jpg","82","image-keyboard-response","76","141345","0.0-3.0-1.36","","","Neither","n","false"
"null","<div style=""font-size:60px;"">+</div>","null","html-keyboard-response","77","141846","0.0-3.0-0.37","","fixation","","",""
"2363","a_b montage/ab_182.jpg","78","image-keyboard-response","78","144212","0.0-3.0-1.37","","","Set_2_Only","l","false"
"null","<div style=""font-size:60px;"">+</div>","null","html-keyboard-response","79","144712","0.0-3.0-0.38","","fixation","","",""
"3681","a_b montage/ab_188.jpg","78","image-keyboard-response","80","148394","0.0-3.0-1.38","","","Set_2_Only","l","false"
"null","<div style=""font-size:60px;"">+</div>","null","html-keyboard-response","81","148895","0.0-3.0-0.39","","fixation","","",""
"3449","a_b montage/ab_099.jpg","76","image-keyboard-response","82","152346","0.0-3.0-1.39","","","Update","b","false"
"null","<div style=""font-size:60px;"">+</div>","null","html-keyboard-response","83","152847","0.0-3.0-0.40","","fixation","","",""
"1571","a_b montage/ab_127.jpg","76","image-keyboard-response","84","154419","0.0-3.0-1.40","","","Update","b","false"
"null","<div style=""font-size:60px;"">+</div>","null","html-keyboard-response","85","154919","0.0-3.0-0.41","","fixation","","",""
"3286","b_a montage/ba_050.jpg","82","image-keyboard-response","86","158207","0.0-3.0-1.41","","","Repeat","r","true"
"null","<div style=""font-size:60px;"">+</div>","null","html-keyboard-response","87","158708","0.0-3.0-0.42","","fixation","","",""
"1648","a_b montage/ab_142.jpg","76","image-keyboard-response","88","160358","0.0-3.0-1.42","","","Update","b","false"
"null","<div style=""font-size:60px;"">+</div>","null","html-keyboard-response","89","160858","0.0-3.0-0.43","","fixation","","",""
"3883","b_a montage/ba_056.jpg","66","image-keyboard-response","90","164743","0.0-3.0-1.43","","","Repeat","r","false"
"null","<div style=""font-size:60px;"">+</div>","null","html-keyboard-response","91","165244","0.0-3.0-0.44","","fixation","","",""
"2593","a_b montage/ab_150.jpg","66","image-keyboard-response","92","167839","0.0-3.0-1.44","","","Update","b","true"
"null","<div style=""font-size:60px;"">+</div>","null","html-keyboard-response","93","168340","0.0-3.0-0.45","","fixation","","",""
"3087","a_b montage/ab_020.jpg","76","image-keyboard-response","94","171429","0.0-3.0-1.45","","","Set_1_Only","l","true"
"null","<div style=""font-size:60px;"">+</div>","null","html-keyboard-response","95","171929","0.0-3.0-0.46","","fixation","","",""
"2391","a_b montage/ab_139.jpg","76","image-keyboard-response","96","174323","0.0-3.0-1.46","","","Update","b","false"
"null","<div style=""font-size:60px;"">+</div>","null","html-keyboard-response","97","174823","0.0-3.0-0.47","","fixation","","",""
"1852","a_b montage/ab_149.jpg","76","image-keyboard-response","98","176676","0.0-3.0-1.47","","","Update","b","false"
"null","<div style=""font-size:60px;"">+</div>","null","html-keyboard-response","99","177179","0.0-3.0-0.48","","fixation","","",""
"1939","a_b new/ab_003.jpg","78","image-keyboard-response","100","179120","0.0-3.0-1.48","","","Neither","n","true"
"null","<div style=""font-size:60px;"">+</div>","null","html-keyboard-response","101","179620","0.0-3.0-0.49","","fixation","","",""
"1933","a_b montage/ab_098.jpg","76","image-keyboard-response","102","181556","0.0-3.0-1.49","","","Update","b","false"
"null","<div style=""font-size:60px;"">+</div>","null","html-keyboard-response","103","182056","0.0-3.0-0.50","","fixation","","",""
"2511","a_b montage/ab_084.jpg","76","image-keyboard-response","104","184568","0.0-3.0-1.50","","","Repeat","l","true"
"null","<div style=""font-size:60px;"">+</div>","null","html-keyboard-response","105","185069","0.0-3.0-0.51","","fixation","","",""
"1619","a_b montage/ab_177.jpg","78","image-keyboard-response","106","186689","0.0-3.0-1.51","","","Set_2_Only","l","false"
"null","<div style=""font-size:60px;"">+</div>","null","html-keyboard-response","107","187191","0.0-3.0-0.52","","fixation","","",""
"2043","a_b montage/ab_111.jpg","76","image-keyboard-response","108","189236","0.0-3.0-1.52","","","Update","b","false"
"null","<div style=""font-size:60px;"">+</div>","null","html-keyboard-response","109","189736","0.0-3.0-0.53","","fixation","","",""
"2518","a_b montage/ab_090.jpg","76","image-keyboard-response","110","192257","0.0-3.0-1.53","","","Repeat","l","true"
"null","<div style=""font-size:60px;"">+</div>","null","html-keyboard-response","111","192757","0.0-3.0-0.54","","fixation","","",""
"2837","b_a montage/ba_012.jpg","66","image-keyboard-response","112","195596","0.0-3.0-1.54","","","Set_1_Only","r","false"
"null","<div style=""font-size:60px;"">+</div>","null","html-keyboard-response","113","196096","0.0-3.0-0.55","","fixation","","",""
"2843","b_a montage/ba_039.jpg","76","image-keyboard-response","114","198941","0.0-3.0-1.55","","","Repeat","r","false"
"null","<div style=""font-size:60px;"">+</div>","null","html-keyboard-response","115","199442","0.0-3.0-0.56","","fixation","","",""
"3131","a_b montage/ab_125.jpg","76","image-keyboard-response","116","202575","0.0-3.0-1.56","","","Update","b","false"
"null","<div style=""font-size:60px;"">+</div>","null","html-keyboard-response","117","203076","0.0-3.0-0.57","","fixation","","",""
"1795","b_a montage/ba_172.jpg","78","image-keyboard-response","118","204872","0.0-3.0-1.57","","","Set_2_Only","r","false"
"null","<div style=""font-size:60px;"">+</div>","null","html-keyboard-response","119","205373","0.0-3.0-0.58","","fixation","","",""
"3741","b_a montage/ba_046.jpg","66","image-keyboard-response","120","209116","0.0-3.0-1.58","","","Repeat","r","false"
"null","<div style=""font-size:60px;"">+</div>","null","html-keyboard-response","121","209616","0.0-3.0-0.59","","fixation","","",""
"3180","b_a montage/ba_004.jpg","82","image-keyboard-response","122","212798","0.0-3.0-1.59","","","Set_1_Only","r","true"
"null","<div style=""font-size:60px;"">+</div>","null","html-keyboard-response","123","213299","0.0-3.0-0.60","","fixation","","",""
"3322","b_a montage/ba_062.jpg","82","image-keyboard-response","124","216623","0.0-3.0-1.60","","","Repeat","r","true"
"null","<div style=""font-size:60px;"">+</div>","null","html-keyboard-response","125","217124","0.0-3.0-0.61","","fixation","","",""
"2164","b_a montage/ba_166.jpg","78","image-keyboard-response","126","219290","0.0-3.0-1.61","","","Set_2_Only","r","false"
"null","<div style=""font-size:60px;"">+</div>","null","html-keyboard-response","127","219791","0.0-3.0-0.62","","fixation","","",""
"3257","a_b montage/ab_148.jpg","76","image-keyboard-response","128","223050","0.0-3.0-1.62","","","Update","b","false"
"null","<div style=""font-size:60px;"">+</div>","null","html-keyboard-response","129","223551","0.0-3.0-0.63","","fixation","","",""
"2136","a_b montage/ab_108.jpg","76","image-keyboard-response","130","225689","0.0-3.0-1.63","","","Update","b","false"
"null","<div style=""font-size:60px;"">+</div>","null","html-keyboard-response","131","226190","0.0-3.0-0.64","","fixation","","",""
"2016","a_b new/ab_010.jpg","78","image-keyboard-response","132","228207","0.0-3.0-1.64","","","Neither","n","true"
"null","<div style=""font-size:60px;"">+</div>","null","html-keyboard-response","133","228708","0.0-3.0-0.65","","fixation","","",""
"2226","b_a montage/ba_011.jpg","76","image-keyboard-response","134","230935","0.0-3.0-1.65","","","Set_1_Only","r","false"
"null","<div style=""font-size:60px;"">+</div>","null","html-keyboard-response","135","231435","0.0-3.0-0.66","","fixation","","",""
"2748","a_b montage/ab_180.jpg","76","image-keyboard-response","136","234186","0.0-3.0-1.66","","","Set_2_Only","l","true"
"null","<div style=""font-size:60px;"">+</div>","null","html-keyboard-response","137","234688","0.0-3.0-0.67","","fixation","","",""
"2709","b_a montage/ba_015.jpg","66","image-keyboard-response","138","237399","0.0-3.0-1.67","","","Set_1_Only","r","false"
"null","<div style=""font-size:60px;"">+</div>","null","html-keyboard-response","139","237899","0.0-3.0-0.68","","fixation","","",""
"3427","b_a montage/ba_058.jpg","82","image-keyboard-response","140","241328","0.0-3.0-1.68","","","Repeat","r","true"
"null","<div style=""font-size:60px;"">+</div>","null","html-keyboard-response","141","241828","0.0-3.0-0.69","","fixation","","",""
"2686","a_b montage/ab_154.jpg","76","image-keyboard-response","142","244516","0.0-3.0-1.69","","","Update","b","false"
"null","<div style=""font-size:60px;"">+</div>","null","html-keyboard-response","143","245017","0.0-3.0-0.70","","fixation","","",""
"2344","a_b montage/ab_112.jpg","76","image-keyboard-response","144","247363","0.0-3.0-1.70","","","Update","b","false"
"null","<div style=""font-size:60px;"">+</div>","null","html-keyboard-response","145","247863","0.0-3.0-0.71","","fixation","","",""
"2677","a_b montage/ab_183.jpg","78","image-keyboard-response","146","250543","0.0-3.0-1.71","","","Set_2_Only","l","false"
"null","<div style=""font-size:60px;"">+</div>","null","html-keyboard-response","147","251043","0.0-3.0-0.72","","fixation","","",""
"2897","a_b montage/ab_192.jpg","78","image-keyboard-response","148","253942","0.0-3.0-1.72","","","Set_2_Only","l","false"
"null","<div style=""font-size:60px;"">+</div>","null","html-keyboard-response","149","254442","0.0-3.0-0.73","","fixation","","",""
"2049","a_b montage/ab_113.jpg","76","image-keyboard-response","150","256494","0.0-3.0-1.73","","","Update","b","false"
"null","<div style=""font-size:60px;"">+</div>","null","html-keyboard-response","151","256994","0.0-3.0-0.74","","fixation","","",""
"2578","b_a montage/ba_037.jpg","82","image-keyboard-response","152","259574","0.0-3.0-1.74","","","Repeat","r","true"
"null","<div style=""font-size:60px;"">+</div>","null","html-keyboard-response","153","260076","0.0-3.0-0.75","","fixation","","",""
"3431","a_b montage/ab_019.jpg","76","image-keyboard-response","154","263510","0.0-3.0-1.75","","","Set_1_Only","l","true"
"null","<div style=""font-size:60px;"">+</div>","null","html-keyboard-response","155","264089","0.0-3.0-0.76","","fixation","","",""
"2821","a_b montage/ab_018.jpg","76","image-keyboard-response","156","266911","0.0-3.0-1.76","","","Set_1_Only","l","true"
"null","<div style=""font-size:60px;"">+</div>","null","html-keyboard-response","157","267412","0.0-3.0-0.77","","fixation","","",""
"1791","a_b montage/ab_085.jpg","76","image-keyboard-response","158","269206","0.0-3.0-1.77","","","Repeat","l","true"
"null","<div style=""font-size:60px;"">+</div>","null","html-keyboard-response","159","269709","0.0-3.0-0.78","","fixation","","",""
"2210","b_a montage/ba_034.jpg","82","image-keyboard-response","160","271921","0.0-3.0-1.78","","","Repeat","r","true"
"null","<div style=""font-size:60px;"">+</div>","null","html-keyboard-response","161","272422","0.0-3.0-0.79","","fixation","","",""
"2088","a_b montage/ab_117.jpg","76","image-keyboard-response","162","274511","0.0-3.0-1.79","","","Update","b","false"
"null","<div style=""font-size:60px;"">+</div>","null","html-keyboard-response","163","275013","0.0-3.0-0.80","","fixation","","",""
"3136","a_b montage/ab_082.jpg","76","image-keyboard-response","164","278150","0.0-3.0-1.80","","","Repeat","l","true"
"null","<div style=""font-size:60px;"">+</div>","null","html-keyboard-response","165","278651","0.0-3.0-0.81","","fixation","","",""
"1779","a_b montage/ab_092.jpg","76","image-keyboard-response","166","280434","0.0-3.0-1.81","","","Repeat","l","true"
"null","<div style=""font-size:60px;"">+</div>","null","html-keyboard-response","167","280934","0.0-3.0-0.82","","fixation","","",""
"2015","b_a montage/ba_060.jpg","76","image-keyboard-response","168","282950","0.0-3.0-1.82","","","Repeat","r","false"
"null","<div style=""font-size:60px;"">+</div>","null","html-keyboard-response","169","283452","0.0-3.0-0.83","","fixation","","",""
"2153","b_a montage/ba_061.jpg","82","image-keyboard-response","170","285608","0.0-3.0-1.83","","","Repeat","r","true"
"null","<div style=""font-size:60px;"">+</div>","null","html-keyboard-response","171","286109","0.0-3.0-0.84","","fixation","","",""
"2491","a_b montage/ab_158.jpg","76","image-keyboard-response","172","288601","0.0-3.0-1.84","","","Update","b","false"
"null","<div style=""font-size:60px;"">+</div>","null","html-keyboard-response","173","289102","0.0-3.0-0.85","","fixation","","",""
"1966","a_b montage/ab_075.jpg","78","image-keyboard-response","174","291070","0.0-3.0-1.85","","","Repeat","l","false"
"null","<div style=""font-size:60px;"">+</div>","null","html-keyboard-response","175","291571","0.0-3.0-0.86","","fixation","","",""
"2693","a_b montage/ab_086.jpg","76","image-keyboard-response","176","294267","0.0-3.0-1.86","","","Repeat","l","true"
"null","<div style=""font-size:60px;"">+</div>","null","html-keyboard-response","177","294768","0.0-3.0-0.87","","fixation","","",""
"3809","a_b montage/ab_190.jpg","76","image-keyboard-response","178","298578","0.0-3.0-1.87","","","Set_2_Only","l","true"
"null","<div style=""font-size:60px;"">+</div>","null","html-keyboard-response","179","299081","0.0-3.0-0.88","","fixation","","",""
"1183","b_a montage/ba_055.jpg","76","image-keyboard-response","180","300266","0.0-3.0-1.88","","","Repeat","r","false"
"null","<div style=""font-size:60px;"">+</div>","null","html-keyboard-response","181","300768","0.0-3.0-0.89","","fixation","","",""
"1270","a_b montage/ab_135.jpg","76","image-keyboard-response","182","302039","0.0-3.0-1.89","","","Update","b","false"
"null","<div style=""font-size:60px;"">+</div>","null","html-keyboard-response","183","302540","0.0-3.0-0.90","","fixation","","",""
"1722","a_b montage/ab_137.jpg","82","image-keyboard-response","184","304263","0.0-3.0-1.90","","","Update","b","false"
"null","<div style=""font-size:60px;"">+</div>","null","html-keyboard-response","185","304764","0.0-3.0-0.91","","fixation","","",""
"1671","b_a montage/ba_006.jpg","76","image-keyboard-response","186","306437","0.0-3.0-1.91","","","Set_1_Only","r","false"
"null","<div style=""font-size:60px;"">+</div>","null","html-keyboard-response","187","306937","0.0-3.0-0.92","","fixation","","",""
"1798","b_a montage/ba_170.jpg","78","image-keyboard-response","188","308737","0.0-3.0-1.92","","","Set_2_Only","r","false"
"null","<div style=""font-size:60px;"">+</div>","null","html-keyboard-response","189","309238","0.0-3.0-0.93","","fixation","","",""
"2022","b_a montage/ba_051.jpg","82","image-keyboard-response","190","311261","0.0-3.0-1.93","","","Repeat","r","true"
"null","<div style=""font-size:60px;"">+</div>","null","html-keyboard-response","191","311762","0.0-3.0-0.94","","fixation","","",""
"2975","a_b montage/ab_128.jpg","76","image-keyboard-response","192","314739","0.0-3.0-1.94","","","Update","b","false"
"null","<div style=""font-size:60px;"">+</div>","null","html-keyboard-response","193","315240","0.0-3.0-0.95","","fixation","","",""
"2217","a_b montage/ab_145.jpg","76","image-keyboard-response","194","317460","0.0-3.0-1.95","","","Update","b","false"
"null","<div style=""font-size:60px;"">+</div>","null","html-keyboard-response","195","317963","0.0-3.0-0.96","","fixation","","",""
"1961","a_b montage/ab_031.jpg","78","image-keyboard-response","196","319926","0.0-3.0-1.96","","","Set_1_Only","l","false"
"null","<div style=""font-size:60px;"">+</div>","null","html-keyboard-response","197","320427","0.0-3.0-0.97","","fixation","","",""
"2013","a_b montage/ab_071.jpg","76","image-keyboard-response","198","322441","0.0-3.0-1.97","","","Repeat","l","true"
"null","<div style=""font-size:60px;"">+</div>","null","html-keyboard-response","199","322942","0.0-3.0-0.98","","fixation","","",""
"1508","b_a montage/ba_120.jpg","76","image-keyboard-response","200","324452","0.0-3.0-1.98","","","Update","b","false"
"null","<div style=""font-size:60px;"">+</div>","null","html-keyboard-response","201","324952","0.0-3.0-0.99","","fixation","","",""
"2828","b_a montage/ba_143.jpg","66","image-keyboard-response","202","327782","0.0-3.0-1.99","","","Update","b","true"
"null","<div style=""font-size:60px;"">+</div>","null","html-keyboard-response","203","328287","0.0-3.0-0.100","","fixation","","",""
"2509","b_a montage/ba_146.jpg","66","image-keyboard-response","204","330799","0.0-3.0-1.100","","","Update","b","true"
"null","<div style=""font-size:60px;"">+</div>","null","html-keyboard-response","205","331301","0.0-3.0-0.101","","fixation","","",""
"1942","a_b new/ab_015.jpg","78","image-keyboard-response","206","333245","0.0-3.0-1.101","","","Neither","n","true"
"null","<div style=""font-size:60px;"">+</div>","null","html-keyboard-response","207","333746","0.0-3.0-0.102","","fixation","","",""
"2085","b_a montage/ba_097.jpg","82","image-keyboard-response","208","335833","0.0-3.0-1.102","","","Update","b","false"
"null","<div style=""font-size:60px;"">+</div>","null","html-keyboard-response","209","336333","0.0-3.0-0.103","","fixation","","",""
"2053","b_a montage/ba_036.jpg","82","image-keyboard-response","210","338388","0.0-3.0-1.103","","","Repeat","r","true"
"null","<div style=""font-size:60px;"">+</div>","null","html-keyboard-response","211","338888","0.0-3.0-0.104","","fixation","","",""
"2140","b_a montage/ba_136.jpg","78","image-keyboard-response","212","341029","0.0-3.0-1.104","","","Update","b","false"
"null","<div style=""font-size:60px;"">+</div>","null","html-keyboard-response","213","341531","0.0-3.0-0.105","","fixation","","",""
"2299","a_b montage/ab_073.jpg","78","image-keyboard-response","214","343833","0.0-3.0-1.105","","","Repeat","l","false"
"null","<div style=""font-size:60px;"">+</div>","null","html-keyboard-response","215","344334","0.0-3.0-0.106","","fixation","","",""
"1750","b_a montage/ba_133.jpg","82","image-keyboard-response","216","346085","0.0-3.0-1.106","","","Update","b","false"
"null","<div style=""font-size:60px;"">+</div>","null","html-keyboard-response","217","346588","0.0-3.0-0.107","","fixation","","",""
"3765","b_a montage/ba_045.jpg","82","image-keyboard-response","218","350354","0.0-3.0-1.107","","","Repeat","r","true"
"null","<div style=""font-size:60px;"">+</div>","null","html-keyboard-response","219","350855","0.0-3.0-0.108","","fixation","","",""
"3719","a_b montage/ab_081.jpg","66","image-keyboard-response","220","354578","0.0-3.0-1.108","","","Repeat","l","false"
"null","<div style=""font-size:60px;"">+</div>","null","html-keyboard-response","221","355078","0.0-3.0-0.109","","fixation","","",""
"2909","a_b montage/ab_089.jpg","76","image-keyboard-response","222","357991","0.0-3.0-1.109","","","Repeat","l","true"
"null","<div style=""font-size:60px;"">+</div>","null","html-keyboard-response","223","358491","0.0-3.0-0.110","","fixation","","",""
"2041","a_b new/ab_005.jpg","78","image-keyboard-response","224","360534","0.0-3.0-1.110","","","Neither","n","true"
"null","<div style=""font-size:60px;"">+</div>","null","html-keyboard-response","225","361036","0.0-3.0-0.111","","fixation","","",""
"2299","b_a montage/ba_053.jpg","78","image-keyboard-response","226","363336","0.0-3.0-1.111","","","Repeat","r","false"
"null","<div style=""font-size:60px;"">+</div>","null","html-keyboard-response","227","363838","0.0-3.0-0.112","","fixation","","",""
"2906","b_a montage/ba_119.jpg","66","image-keyboard-response","228","366747","0.0-3.0-1.112","","","Update","b","true"
"null","<div style=""font-size:60px;"">+</div>","null","html-keyboard-response","229","367248","0.0-3.0-0.113","","fixation","","",""
"3362","b_a montage/ba_171.jpg","78","image-keyboard-response","230","370611","0.0-3.0-1.113","","","Set_2_Only","r","false"
"null","<div style=""font-size:60px;"">+</div>","null","html-keyboard-response","231","371113","0.0-3.0-0.114","","fixation","","",""
"2624","b_a montage/ba_110.jpg","82","image-keyboard-response","232","373739","0.0-3.0-1.114","","","Update","b","false"
"null","<div style=""font-size:60px;"">+</div>","null","html-keyboard-response","233","374240","0.0-3.0-0.115","","fixation","","",""
"2307","b_a montage/ba_116.jpg","82","image-keyboard-response","234","376549","0.0-3.0-1.115","","","Update","b","false"
"null","<div style=""font-size:60px;"">+</div>","null","html-keyboard-response","235","377051","0.0-3.0-0.116","","fixation","","",""
"2358","a_b montage/ab_024.jpg","76","image-keyboard-response","236","379410","0.0-3.0-1.116","","","Set_1_Only","l","true"
"null","<div style=""font-size:60px;"">+</div>","null","html-keyboard-response","237","379911","0.0-3.0-0.117","","fixation","","",""
"1320","a_b montage/ab_026.jpg","76","image-keyboard-response","238","381235","0.0-3.0-1.117","","","Set_1_Only","l","true"
"null","<div style=""font-size:60px;"">+</div>","null","html-keyboard-response","239","381736","0.0-3.0-0.118","","fixation","","",""
"2753","b_a montage/ba_052.jpg","76","image-keyboard-response","240","384491","0.0-3.0-1.118","","","Repeat","r","false"
"null","<div style=""font-size:60px;"">+</div>","null","html-keyboard-response","241","384992","0.0-3.0-0.119","","fixation","","",""
"1355","a_b montage/ab_094.jpg","76","image-keyboard-response","242","386349","0.0-3.0-1.119","","","Repeat","l","true"
"null","<div style=""font-size:60px;"">+</div>","null","html-keyboard-response","243","386849","0.0-3.0-0.120","","fixation","","",""
"2322","b_a montage/ba_101.jpg","66","image-keyboard-response","244","389172","0.0-3.0-1.120","","","Update","b","true"
"null","<div style=""font-size:60px;"">+</div>","null","html-keyboard-response","245","389673","0.0-3.0-0.121","","fixation","","",""
"3977","b_a montage/ba_152.jpg","82","image-keyboard-response","246","393653","0.0-3.0-1.121","","","Update","b","false"
"null","<div style=""font-size:60px;"">+</div>","null","html-keyboard-response","247","394155","0.0-3.0-0.122","","fixation","","",""
"2475","a_b montage/ab_093.jpg","78","image-keyboard-response","248","396632","0.0-3.0-1.122","","","Repeat","l","false"
"null","<div style=""font-size:60px;"">+</div>","null","html-keyboard-response","249","397133","0.0-3.0-0.123","","fixation","","",""
"1256","a_b new/ab_007.jpg","78","image-keyboard-response","250","398390","0.0-3.0-1.123","","","Neither","n","true"
"null","<div style=""font-size:60px;"">+</div>","null","html-keyboard-response","251","398891","0.0-3.0-0.124","","fixation","","",""
"2603","b_a montage/ba_102.jpg","82","image-keyboard-response","252","401496","0.0-3.0-1.124","","","Update","b","false"
"null","<div style=""font-size:60px;"">+</div>","null","html-keyboard-response","253","401997","0.0-3.0-0.125","","fixation","","",""
"1633","a_b montage/ab_021.jpg","76","image-keyboard-response","254","403631","0.0-3.0-1.125","","","Set_1_Only","l","true"
"null","<div style=""font-size:60px;"">+</div>","null","html-keyboard-response","255","404133","0.0-3.0-0.126","","fixation","","",""
"2143","a_b montage/ab_065.jpg","82","image-keyboard-response","256","406277","0.0-3.0-1.126","","","Repeat","l","false"
"null","<div style=""font-size:60px;"">+</div>","null","html-keyboard-response","257","406778","0.0-3.0-0.127","","fixation","","",""
"2334","a_b new/ab_002.jpg","78","image-keyboard-response","258","409113","0.0-3.0-1.127","","","Neither","n","true"
"null","<div style=""font-size:60px;"">+</div>","null","html-keyboard-response","259","409615","0.0-3.0-0.128","","fixation","","",""
"1732","b_a montage/ba_057.jpg","82","image-keyboard-response","260","411350","0.0-3.0-1.128","","","Repeat","r","true"
"null","<div style=""font-size:60px;"">+</div>","null","html-keyboard-response","261","411851","0.0-3.0-0.129","","fixation","","",""
"4676","b_a montage/ba_167.jpg","78","image-keyboard-response","262","416529","0.0-3.0-1.129","","","Set_2_Only","r","false"
"null","<div style=""font-size:60px;"">+</div>","null","html-keyboard-response","263","417029","0.0-3.0-0.130","","fixation","","",""
"2881","b_a montage/ba_160.jpg","82","image-keyboard-response","264","419912","0.0-3.0-1.130","","","Update","b","false"
"null","<div style=""font-size:60px;"">+</div>","null","html-keyboard-response","265","420413","0.0-3.0-0.131","","fixation","","",""
"2115","b_a montage/ba_005.jpg","82","image-keyboard-response","266","422532","0.0-3.0-1.131","","","Set_1_Only","r","true"
"null","<div style=""font-size:60px;"">+</div>","null","html-keyboard-response","267","423032","0.0-3.0-0.132","","fixation","","",""
"2709","b_a montage/ba_140.jpg","82","image-keyboard-response","268","425742","0.0-3.0-1.132","","","Update","b","false"
"null","<div style=""font-size:60px;"">+</div>","null","html-keyboard-response","269","426243","0.0-3.0-0.133","","fixation","","",""
"2203","b_a new/ba_006.jpg","78","image-keyboard-response","270","428448","0.0-3.0-1.133","","","Neither","n","true"
"null","<div style=""font-size:60px;"">+</div>","null","html-keyboard-response","271","428949","0.0-3.0-0.134","","fixation","","",""
"2268","b_a montage/ba_123.jpg","82","image-keyboard-response","272","431219","0.0-3.0-1.134","","","Update","b","false"
"null","<div style=""font-size:60px;"">+</div>","null","html-keyboard-response","273","431719","0.0-3.0-0.135","","fixation","","",""
"3431","b_a montage/ba_033.jpg","82","image-keyboard-response","274","435153","0.0-3.0-1.135","","","Repeat","r","true"
"null","<div style=""font-size:60px;"">+</div>","null","html-keyboard-response","275","435654","0.0-3.0-0.136","","fixation","","",""
"2306","a_b montage/ab_077.jpg","82","image-keyboard-response","276","437963","0.0-3.0-1.136","","","Repeat","l","false"
"null","<div style=""font-size:60px;"">+</div>","null","html-keyboard-response","277","438463","0.0-3.0-0.137","","fixation","","",""
"1717","a_b montage/ab_032.jpg","76","image-keyboard-response","278","440181","0.0-3.0-1.137","","","Set_1_Only","l","true"
"null","<div style=""font-size:60px;"">+</div>","null","html-keyboard-response","279","440682","0.0-3.0-0.138","","fixation","","",""
"2151","b_a montage/ba_156.jpg","82","image-keyboard-response","280","442834","0.0-3.0-1.138","","","Update","b","false"
"null","<div style=""font-size:60px;"">+</div>","null","html-keyboard-response","281","443336","0.0-3.0-0.139","","fixation","","",""
"4506","a_b montage/ab_022.jpg","78","image-keyboard-response","282","447844","0.0-3.0-1.139","","","Set_1_Only","l","false"
"null","<div style=""font-size:60px;"">+</div>","null","html-keyboard-response","283","448345","0.0-3.0-0.140","","fixation","","",""
"3459","b_a montage/ba_114.jpg","82","image-keyboard-response","284","451806","0.0-3.0-1.140","","","Update","b","false"
"null","<div style=""font-size:60px;"">+</div>","null","html-keyboard-response","285","452307","0.0-3.0-0.141","","fixation","","",""
"2198","b_a new/ba_013.jpg","78","image-keyboard-response","286","454509","0.0-3.0-1.141","","","Neither","n","true"
"null","<div style=""font-size:60px;"">+</div>","null","html-keyboard-response","287","455011","0.0-3.0-0.142","","fixation","","",""
"3312","a_b montage/ab_023.jpg","82","image-keyboard-response","288","458325","0.0-3.0-1.142","","","Set_1_Only","l","false"
"null","<div style=""font-size:60px;"">+</div>","null","html-keyboard-response","289","458826","0.0-3.0-0.143","","fixation","","",""
"2962","a_b montage/ab_087.jpg","76","image-keyboard-response","290","461790","0.0-3.0-1.143","","","Repeat","l","true"
"null","<div style=""font-size:60px;"">+</div>","null","html-keyboard-response","291","462291","0.0-3.0-0.144","","fixation","","",""
"2002","b_a montage/ba_155.jpg","82","image-keyboard-response","292","464296","0.0-3.0-1.144","","","Update","b","false"
"null","<div style=""font-size:60px;"">+</div>","null","html-keyboard-response","293","464797","0.0-3.0-0.145","","fixation","","",""
"1681","b_a montage/ba_002.jpg","76","image-keyboard-response","294","466480","0.0-3.0-1.145","","","Set_1_Only","r","false"
"null","<div style=""font-size:60px;"">+</div>","null","html-keyboard-response","295","466980","0.0-3.0-0.146","","fixation","","",""
"2627","b_a montage/ba_161.jpg","76","image-keyboard-response","296","469608","0.0-3.0-1.146","","","Set_2_Only","r","false"
"null","<div style=""font-size:60px;"">+</div>","null","html-keyboard-response","297","470109","0.0-3.0-0.147","","fixation","","",""
"4087","a_b montage/ab_029.jpg","76","image-keyboard-response","298","474198","0.0-3.0-1.147","","","Set_1_Only","l","true"
"null","<div style=""font-size:60px;"">+</div>","null","html-keyboard-response","299","474699","0.0-3.0-0.148","","fixation","","",""
"2074","a_b montage/ab_030.jpg","76","image-keyboard-response","300","476775","0.0-3.0-1.148","","","Set_1_Only","l","true"
"null","<div style=""font-size:60px;"">+</div>","null","html-keyboard-response","301","477276","0.0-3.0-0.149","","fixation","","",""
"2337","b_a new/ba_004.jpg","78","image-keyboard-response","302","479615","0.0-3.0-1.149","","","Neither","n","true"
"null","<div style=""font-size:60px;"">+</div>","null","html-keyboard-response","303","480117","0.0-3.0-0.150","","fixation","","",""
"3252","b_a montage/ba_049.jpg","76","image-keyboard-response","304","483372","0.0-3.0-1.150","","","Repeat","r","false"
"null","<div style=""font-size:60px;"">+</div>","null","html-keyboard-response","305","483873","0.0-3.0-0.151","","fixation","","",""
"2112","a_b montage/ab_027.jpg","76","image-keyboard-response","306","485987","0.0-3.0-1.151","","","Set_1_Only","l","true"
"null","<div style=""font-size:60px;"">+</div>","null","html-keyboard-response","307","486489","0.0-3.0-0.152","","fixation","","",""
"2780","b_a montage/ba_008.jpg","76","image-keyboard-response","308","489269","0.0-3.0-1.152","","","Set_1_Only","r","false"
"null","<div style=""font-size:60px;"">+</div>","null","html-keyboard-response","309","489770","0.0-3.0-0.153","","fixation","","",""
"3190","b_a montage/ba_048.jpg","76","image-keyboard-response","310","492962","0.0-3.0-1.153","","","Repeat","r","false"
"null","<div style=""font-size:60px;"">+</div>","null","html-keyboard-response","311","493463","0.0-3.0-0.154","","fixation","","",""
"1462","a_b montage/ab_191.jpg","78","image-keyboard-response","312","494928","0.0-3.0-1.154","","","Set_2_Only","l","false"
"null","<div style=""font-size:60px;"">+</div>","null","html-keyboard-response","313","495429","0.0-3.0-0.155","","fixation","","",""
"2743","a_b montage/ab_186.jpg","78","image-keyboard-response","314","498174","0.0-3.0-1.155","","","Set_2_Only","l","false"
"null","<div style=""font-size:60px;"">+</div>","null","html-keyboard-response","315","498675","0.0-3.0-0.156","","fixation","","",""
"1710","b_a montage/ba_157.jpg","82","image-keyboard-response","316","500386","0.0-3.0-1.156","","","Update","b","false"
"null","<div style=""font-size:60px;"">+</div>","null","html-keyboard-response","317","500887","0.0-3.0-0.157","","fixation","","",""
"1765","a_b montage/ab_072.jpg","76","image-keyboard-response","318","502653","0.0-3.0-1.157","","","Repeat","l","true"
"null","<div style=""font-size:60px;"">+</div>","null","html-keyboard-response","319","503154","0.0-3.0-0.158","","fixation","","",""
"1519","b_a montage/ba_173.jpg","78","image-keyboard-response","320","504674","0.0-3.0-1.158","","","Set_2_Only","r","false"
"null","<div style=""font-size:60px;"">+</div>","null","html-keyboard-response","321","505175","0.0-3.0-0.159","","fixation","","",""
"1850","a_b montage/ab_187.jpg","78","image-keyboard-response","322","507026","0.0-3.0-1.159","","","Set_2_Only","l","false"
"null","<div style=""font-size:60px;"">+</div>","null","html-keyboard-response","323","507527","0.0-3.0-0.160","","fixation","","",""
"2334","b_a montage/ba_016.jpg","82","image-keyboard-response","324","509863","0.0-3.0-1.160","","","Set_1_Only","r","true"
"null","<div style=""font-size:60px;"">+</div>","null","html-keyboard-response","325","510364","0.0-3.0-0.161","","fixation","","",""
"2702","a_b montage/ab_095.jpg","78","image-keyboard-response","326","513068","0.0-3.0-1.161","","","Repeat","l","false"
"null","<div style=""font-size:60px;"">+</div>","null","html-keyboard-response","327","513569","0.0-3.0-0.162","","fixation","","",""
"1731","a_b montage/ab_178.jpg","78","image-keyboard-response","328","515303","0.0-3.0-1.162","","","Set_2_Only","l","false"
"null","<div style=""font-size:60px;"">+</div>","null","html-keyboard-response","329","515804","0.0-3.0-0.163","","fixation","","",""
"1678","b_a new/ba_014.jpg","78","image-keyboard-response","330","517484","0.0-3.0-1.163","","","Neither","n","true"
"null","<div style=""font-size:60px;"">+</div>","null","html-keyboard-response","331","517985","0.0-3.0-0.164","","fixation","","",""
"1748","b_a montage/ba_126.jpg","82","image-keyboard-response","332","519734","0.0-3.0-1.164","","","Update","b","false"
"null","<div style=""font-size:60px;"">+</div>","null","html-keyboard-response","333","520235","0.0-3.0-0.165","","fixation","","",""
"3058","b_a montage/ba_134.jpg","66","image-keyboard-response","334","523293","0.0-3.0-1.165","","","Update","b","true"
"null","<div style=""font-size:60px;"">+</div>","null","html-keyboard-response","335","523794","0.0-3.0-0.166","","fixation","","",""
"2538","b_a montage/ba_162.jpg","78","image-keyboard-response","336","526335","0.0-3.0-1.166","","","Set_2_Only","r","false"
"null","<div style=""font-size:60px;"">+</div>","null","html-keyboard-response","337","526838","0.0-3.0-0.167","","fixation","","",""
"2796","b_a montage/ba_003.jpg","82","image-keyboard-response","338","529635","0.0-3.0-1.167","","","Set_1_Only","r","true"
"null","<div style=""font-size:60px;"">+</div>","null","html-keyboard-response","339","530137","0.0-3.0-0.168","","fixation","","",""
"1965","b_a montage/ba_007.jpg","82","image-keyboard-response","340","532104","0.0-3.0-1.168","","","Set_1_Only","r","true"
"null","<div style=""font-size:60px;"">+</div>","null","html-keyboard-response","341","532605","0.0-3.0-0.169","","fixation","","",""
"2768","b_a montage/ba_063.jpg","82","image-keyboard-response","342","535375","0.0-3.0-1.169","","","Repeat","r","true"
"null","<div style=""font-size:60px;"">+</div>","null","html-keyboard-response","343","535876","0.0-3.0-0.170","","fixation","","",""
"2939","b_a montage/ba_132.jpg","82","image-keyboard-response","344","538816","0.0-3.0-1.170","","","Update","b","false"
"null","<div style=""font-size:60px;"">+</div>","null","html-keyboard-response","345","539318","0.0-3.0-0.171","","fixation","","",""
"2066","a_b montage/ab_096.jpg","76","image-keyboard-response","346","541385","0.0-3.0-1.171","","","Repeat","l","true"
"null","<div style=""font-size:60px;"">+</div>","null","html-keyboard-response","347","541886","0.0-3.0-0.172","","fixation","","",""
"1737","b_a montage/ba_014.jpg","78","image-keyboard-response","348","543626","0.0-3.0-1.172","","","Set_1_Only","r","false"
"null","<div style=""font-size:60px;"">+</div>","null","html-keyboard-response","349","544126","0.0-3.0-0.173","","fixation","","",""
"2828","b_a montage/ba_105.jpg","76","image-keyboard-response","350","546955","0.0-3.0-1.173","","","Update","b","false"
"null","<div style=""font-size:60px;"">+</div>","null","html-keyboard-response","351","547456","0.0-3.0-0.174","","fixation","","",""
"2531","b_a montage/ba_054.jpg","82","image-keyboard-response","352","549990","0.0-3.0-1.174","","","Repeat","r","true"
"null","<div style=""font-size:60px;"">+</div>","null","html-keyboard-response","353","550490","0.0-3.0-0.175","","fixation","","",""
"2872","b_a montage/ba_042.jpg","82","image-keyboard-response","354","553363","0.0-3.0-1.175","","","Repeat","r","true"
"null","<div style=""font-size:60px;"">+</div>","null","html-keyboard-response","355","553864","0.0-3.0-0.176","","fixation","","",""
"1910","a_b montage/ab_074.jpg","76","image-keyboard-response","356","555776","0.0-3.0-1.176","","","Repeat","l","true"
"null","<div style=""font-size:60px;"">+</div>","null","html-keyboard-response","357","556277","0.0-3.0-0.177","","fixation","","",""
"1522","a_b montage/ab_083.jpg","76","image-keyboard-response","358","557800","0.0-3.0-1.177","","","Repeat","l","true"
"null","<div style=""font-size:60px;"">+</div>","null","html-keyboard-response","359","558302","0.0-3.0-0.178","","fixation","","",""
"2083","b_a montage/ba_144.jpg","82","image-keyboard-response","360","560387","0.0-3.0-1.178","","","Update","b","false"
"null","<div style=""font-size:60px;"">+</div>","null","html-keyboard-response","361","560888","0.0-3.0-0.179","","fixation","","",""
"2748","a_b montage/ab_078.jpg","76","image-keyboard-response","362","563637","0.0-3.0-1.179","","","Repeat","l","true"
"null","<div style=""font-size:60px;"">+</div>","null","html-keyboard-response","363","564138","0.0-3.0-0.180","","fixation","","",""
"1586","a_b montage/ab_184.jpg","78","image-keyboard-response","364","565727","0.0-3.0-1.180","","","Set_2_Only","l","false"
"null","<div style=""font-size:60px;"">+</div>","null","html-keyboard-response","365","566227","0.0-3.0-0.181","","fixation","","",""
"1867","b_a montage/ba_121.jpg","82","image-keyboard-response","366","568096","0.0-3.0-1.181","","","Update","b","false"
"null","<div style=""font-size:60px;"">+</div>","null","html-keyboard-response","367","568596","0.0-3.0-0.182","","fixation","","",""
"2122","b_a montage/ba_001.jpg","82","image-keyboard-response","368","570720","0.0-3.0-1.182","","","Set_1_Only","r","true"
"null","<div style=""font-size:60px;"">+</div>","null","html-keyboard-response","369","571220","0.0-3.0-0.183","","fixation","","",""
"1865","b_a montage/ba_106.jpg","82","image-keyboard-response","370","573086","0.0-3.0-1.183","","","Update","b","false"
"null","<div style=""font-size:60px;"">+</div>","null","html-keyboard-response","371","573587","0.0-3.0-0.184","","fixation","","",""
"1326","b_a montage/ba_122.jpg","82","image-keyboard-response","372","574915","0.0-3.0-1.184","","","Update","b","false"
"null","<div style=""font-size:60px;"">+</div>","null","html-keyboard-response","373","575416","0.0-3.0-0.185","","fixation","","",""
"2817","b_a montage/ba_064.jpg","82","image-keyboard-response","374","578234","0.0-3.0-1.185","","","Repeat","r","true"
"null","<div style=""font-size:60px;"">+</div>","null","html-keyboard-response","375","578735","0.0-3.0-0.186","","fixation","","",""
"1669","b_a montage/ba_059.jpg","78","image-keyboard-response","376","580405","0.0-3.0-1.186","","","Repeat","r","false"
"null","<div style=""font-size:60px;"">+</div>","null","html-keyboard-response","377","580907","0.0-3.0-0.187","","fixation","","",""
"1824","b_a montage/ba_175.jpg","78","image-keyboard-response","378","582733","0.0-3.0-1.187","","","Set_2_Only","r","false"
"null","<div style=""font-size:60px;"">+</div>","null","html-keyboard-response","379","583233","0.0-3.0-0.188","","fixation","","",""
"3473","b_a montage/ba_169.jpg","78","image-keyboard-response","380","586708","0.0-3.0-1.188","","","Set_2_Only","r","false"
"null","<div style=""font-size:60px;"">+</div>","null","html-keyboard-response","381","587208","0.0-3.0-0.189","","fixation","","",""
"2030","b_a montage/ba_151.jpg","82","image-keyboard-response","382","589241","0.0-3.0-1.189","","","Update","b","false"
"null","<div style=""font-size:60px;"">+</div>","null","html-keyboard-response","383","589741","0.0-3.0-0.190","","fixation","","",""
"2350","b_a montage/ba_010.jpg","82","image-keyboard-response","384","592094","0.0-3.0-1.190","","","Set_1_Only","r","true"
"null","<div style=""font-size:60px;"">+</div>","null","html-keyboard-response","385","592594","0.0-3.0-0.191","","fixation","","",""
"3367","b_a montage/ba_164.jpg","76","image-keyboard-response","386","595962","0.0-3.0-1.191","","","Set_2_Only","r","false"
"null","<div style=""font-size:60px;"">+</div>","null","html-keyboard-response","387","596463","0.0-3.0-0.192","","fixation","","",""
"3559","a_b montage/ab_070.jpg","76","image-keyboard-response","388","600026","0.0-3.0-1.192","","","Repeat","l","true"
"null","<div style=""font-size:60px;"">+</div>","null","html-keyboard-response","389","600526","0.0-3.0-0.193","","fixation","","",""
"2010","b_a montage/ba_044.jpg","82","image-keyboard-response","390","602540","0.0-3.0-1.193","","","Repeat","r","true"
"null","<div style=""font-size:60px;"">+</div>","null","html-keyboard-response","391","603040","0.0-3.0-0.194","","fixation","","",""
"1741","b_a montage/ba_035.jpg","82","image-keyboard-response","392","604782","0.0-3.0-1.194","","","Repeat","r","true"
"null","<div style=""font-size:60px;"">+</div>","null","html-keyboard-response","393","605283","0.0-3.0-0.195","","fixation","","",""
"1653","b_a montage/ba_040.jpg","82","image-keyboard-response","394","606937","0.0-3.0-1.195","","","Repeat","r","true"
"null","<div style=""font-size:60px;"">+</div>","null","html-keyboard-response","395","607439","0.0-3.0-0.196","","fixation","","",""
"2016","b_a montage/ba_124.jpg","82","image-keyboard-response","396","609459","0.0-3.0-1.196","","","Update","b","false"
"null","<div style=""font-size:60px;"">+</div>","null","html-keyboard-response","397","609960","0.0-3.0-0.197","","fixation","","",""
"2174","a_b montage/ab_025.jpg","76","image-keyboard-response","398","612135","0.0-3.0-1.197","","","Set_1_Only","l","true"
"null","<div style=""font-size:60px;"">+</div>","null","html-keyboard-response","399","612637","0.0-3.0-0.198","","fixation","","",""
"2693","b_a montage/ba_165.jpg","82","image-keyboard-response","400","615331","0.0-3.0-1.198","","","Set_2_Only","r","true"
"null","<div style=""font-size:60px;"">+</div>","null","html-keyboard-response","401","615832","0.0-3.0-0.199","","fixation","","",""
"2637","b_a montage/ba_138.jpg","82","image-keyboard-response","402","618471","0.0-3.0-1.199","","","Update","b","false"
"null","<div style=""font-size:60px;"">+</div>","null","html-keyboard-response","403","618972","0.0-3.0-0.200","","fixation","","",""
"1784","a_b montage/ab_028.jpg","76","image-keyboard-response","404","620758","0.0-3.0-1.200","","","Set_1_Only","l","true"
"null","<div style=""font-size:60px;"">+</div>","null","html-keyboard-response","405","621258","0.0-3.0-0.201","","fixation","","",""
"1576","a_b montage/ab_076.jpg","76","image-keyboard-response","406","622835","0.0-3.0-1.201","","","Repeat","l","true"
"null","<div style=""font-size:60px;"">+</div>","null","html-keyboard-response","407","623336","0.0-3.0-0.202","","fixation","","",""
"4307","b_a new/ba_012.jpg","78","image-keyboard-response","408","627645","0.0-3.0-1.202","","","Neither","n","true"
"null","<div style=""font-size:60px;"">+</div>","null","html-keyboard-response","409","628145","0.0-3.0-0.203","","fixation","","",""
"3718","a_b montage/ab_068.jpg","76","image-keyboard-response","410","631866","0.0-3.0-1.203","","","Repeat","l","true"
"null","<div style=""font-size:60px;"">+</div>","null","html-keyboard-response","411","632367","0.0-3.0-0.204","","fixation","","",""
"1851","b_a montage/ba_115.jpg","82","image-keyboard-response","412","634228","0.0-3.0-1.204","","","Update","b","false"
"null","<div style=""font-size:60px;"">+</div>","null","html-keyboard-response","413","634729","0.0-3.0-0.205","","fixation","","",""
"2104","b_a montage/ba_118.jpg","82","image-keyboard-response","414","636842","0.0-3.0-1.205","","","Update","b","false"
"null","<div style=""font-size:60px;"">+</div>","null","html-keyboard-response","415","637343","0.0-3.0-0.206","","fixation","","",""
"4223","a_b montage/ab_189.jpg","76","image-keyboard-response","416","641567","0.0-3.0-1.206","","","Set_2_Only","l","true"
"null","<div style=""font-size:60px;"">+</div>","null","html-keyboard-response","417","642068","0.0-3.0-0.207","","fixation","","",""
"1688","b_a new/ba_009.jpg","78","image-keyboard-response","418","643759","0.0-3.0-1.207","","","Neither","n","true"
