"rt","stimulus","key_press","trial_type","trial_index","time_elapsed","internal_node_id","responses","test_part","stim_type","correct_response","correct"
"6289","Press any key to begin.","82","html-keyboard-response","0","6292","0.0-0.0","","","","",""
"11384","","","survey-text","1","17678","0.0-1.0","{""Q0"":""128689"",""Q1"":""""}","","","",""
"18248","<p>For this phase you will see two similar images side by side on the screen I want you to tell us which of the items you have seen before in any of the previous sets of images. </p><p>If you have only seen the image on the left you will press the 'L' key on your keyboard.</p>If you have only seen the image on the right you will press the 'R' key on your keyboard.</p>If you have previously seen both of the images you will press the 'B' key on your keyboard.</p>If you have not seen either image you will press the 'N' key on your keyboard.</p><div style='width: 700px;'></div><p>Press any key to begin.</p>","76","html-keyboard-response","2","35927","0.0-2.0","","","","",""
"null","<div style=""font-size:60px;"">+</div>","null","html-keyboard-response","3","38431","0.0-3.0-0.0","","fixation","","",""
"3079","b_a montage/ba_038.jpg","76","image-keyboard-response","4","41512","0.0-3.0-1.0","","","Repeat","r","false"
"null","<div style=""font-size:60px;"">+</div>","null","html-keyboard-response","5","42015","0.0-3.0-0.1","","fixation","","",""
"2655","a_b new/ab_008.jpg","78","image-keyboard-response","6","44672","0.0-3.0-1.1","","","Neither","n","true"
"null","<div style=""font-size:60px;"">+</div>","null","html-keyboard-response","7","45174","0.0-3.0-0.2","","fixation","","",""
"3482","a_b montage/ab_109.jpg","76","image-keyboard-response","8","48657","0.0-3.0-1.2","","","Update","b","false"
"null","<div style=""font-size:60px;"">+</div>","null","html-keyboard-response","9","49159","0.0-3.0-0.3","","fixation","","",""
"3263","a_b montage/ab_088.jpg","82","image-keyboard-response","10","52424","0.0-3.0-1.3","","","Repeat","l","false"
"null","<div style=""font-size:60px;"">+</div>","null","html-keyboard-response","11","52926","0.0-3.0-0.4","","fixation","","",""
"2817","a_b montage/ab_067.jpg","76","image-keyboard-response","12","55744","0.0-3.0-1.4","","","Repeat","l","true"
"null","<div style=""font-size:60px;"">+</div>","null","html-keyboard-response","13","56246","0.0-3.0-0.5","","fixation","","",""
"2465","b_a montage/ba_174.jpg","82","image-keyboard-response","14","58712","0.0-3.0-1.5","","","Set_2_Only","r","true"
"null","<div style=""font-size:60px;"">+</div>","null","html-keyboard-response","15","59214","0.0-3.0-0.6","","fixation","","",""
"2912","a_b montage/ab_103.jpg","82","image-keyboard-response","16","62128","0.0-3.0-1.6","","","Update","b","false"
"null","<div style=""font-size:60px;"">+</div>","null","html-keyboard-response","17","62629","0.0-3.0-0.7","","fixation","","",""
"3449","a_b montage/ab_129.jpg","66","image-keyboard-response","18","66079","0.0-3.0-1.7","","","Update","b","true"
"null","<div style=""font-size:60px;"">+</div>","null","html-keyboard-response","19","66581","0.0-3.0-0.8","","fixation","","",""
"2633","a_b montage/ab_130.jpg","82","image-keyboard-response","20","69215","0.0-3.0-1.8","","","Update","b","false"
"null","<div style=""font-size:60px;"">+</div>","null","html-keyboard-response","21","69717","0.0-3.0-0.9","","fixation","","",""
"2209","a_b montage/ab_181.jpg","76","image-keyboard-response","22","71927","0.0-3.0-1.9","","","Set_2_Only","l","true"
"null","<div style=""font-size:60px;"">+</div>","null","html-keyboard-response","23","72429","0.0-3.0-0.10","","fixation","","",""
"2777","a_b montage/ab_179.jpg","66","image-keyboard-response","24","75207","0.0-3.0-1.10","","","Set_2_Only","l","false"
"null","<div style=""font-size:60px;"">+</div>","null","html-keyboard-response","25","75710","0.0-3.0-0.11","","fixation","","",""
"4063","a_b new/ab_016.jpg","82","image-keyboard-response","26","79775","0.0-3.0-1.11","","","Neither","n","false"
"null","<div style=""font-size:60px;"">+</div>","null","html-keyboard-response","27","80277","0.0-3.0-0.12","","fixation","","",""
"3123","a_b montage/ab_153.jpg","76","image-keyboard-response","28","83401","0.0-3.0-1.12","","","Update","b","false"
"null","<div style=""font-size:60px;"">+</div>","null","html-keyboard-response","29","83903","0.0-3.0-0.13","","fixation","","",""
"3696","b_a montage/ba_009.jpg","78","image-keyboard-response","30","87601","0.0-3.0-1.13","","","Set_1_Only","r","false"
"null","<div style=""font-size:60px;"">+</div>","null","html-keyboard-response","31","88103","0.0-3.0-0.14","","fixation","","",""
"2809","a_b montage/ab_141.jpg","76","image-keyboard-response","32","90914","0.0-3.0-1.14","","","Update","b","false"
"null","<div style=""font-size:60px;"">+</div>","null","html-keyboard-response","33","91416","0.0-3.0-0.15","","fixation","","",""
"2503","a_b montage/ab_079.jpg","76","image-keyboard-response","34","93921","0.0-3.0-1.15","","","Repeat","l","true"
"null","<div style=""font-size:60px;"">+</div>","null","html-keyboard-response","35","94421","0.0-3.0-0.16","","fixation","","",""
"3418","b_a montage/ba_176.jpg","82","image-keyboard-response","36","97841","0.0-3.0-1.16","","","Set_2_Only","r","true"
"null","<div style=""font-size:60px;"">+</div>","null","html-keyboard-response","37","98343","0.0-3.0-0.17","","fixation","","",""
"3483","a_b montage/ab_017.jpg","76","image-keyboard-response","38","101829","0.0-3.0-1.17","","","Set_1_Only","l","true"
"null","<div style=""font-size:60px;"">+</div>","null","html-keyboard-response","39","102331","0.0-3.0-0.18","","fixation","","",""
"4040","a_b montage/ab_069.jpg","76","image-keyboard-response","40","106372","0.0-3.0-1.18","","","Repeat","l","true"
"null","<div style=""font-size:60px;"">+</div>","null","html-keyboard-response","41","106873","0.0-3.0-0.19","","fixation","","",""
"2873","a_b montage/ab_100.jpg","76","image-keyboard-response","42","109749","0.0-3.0-1.19","","","Update","b","false"
"null","<div style=""font-size:60px;"">+</div>","null","html-keyboard-response","43","110250","0.0-3.0-0.20","","fixation","","",""
"2896","a_b new/ab_001.jpg","76","image-keyboard-response","44","113148","0.0-3.0-1.20","","","Neither","n","false"
"null","<div style=""font-size:60px;"">+</div>","null","html-keyboard-response","45","113650","0.0-3.0-0.21","","fixation","","",""
"2840","b_a montage/ba_013.jpg","78","image-keyboard-response","46","116492","0.0-3.0-1.21","","","Set_1_Only","r","false"
"null","<div style=""font-size:60px;"">+</div>","null","html-keyboard-response","47","116994","0.0-3.0-0.22","","fixation","","",""
"2930","a_b montage/ab_066.jpg","82","image-keyboard-response","48","119926","0.0-3.0-1.22","","","Repeat","l","false"
"null","<div style=""font-size:60px;"">+</div>","null","html-keyboard-response","49","120428","0.0-3.0-0.23","","fixation","","",""
"1744","b_a montage/ba_041.jpg","82","image-keyboard-response","50","122174","0.0-3.0-1.23","","","Repeat","r","true"
"null","<div style=""font-size:60px;"">+</div>","null","html-keyboard-response","51","122676","0.0-3.0-0.24","","fixation","","",""
"2976","b_a montage/ba_043.jpg","76","image-keyboard-response","52","125653","0.0-3.0-1.24","","","Repeat","r","false"
"null","<div style=""font-size:60px;"">+</div>","null","html-keyboard-response","53","126160","0.0-3.0-0.25","","fixation","","",""
"2699","a_b montage/ab_080.jpg","76","image-keyboard-response","54","128861","0.0-3.0-1.25","","","Repeat","l","true"
"null","<div style=""font-size:60px;"">+</div>","null","html-keyboard-response","55","129362","0.0-3.0-0.26","","fixation","","",""
"1921","a_b montage/ab_131.jpg","76","image-keyboard-response","56","131285","0.0-3.0-1.26","","","Update","b","false"
"null","<div style=""font-size:60px;"">+</div>","null","html-keyboard-response","57","131786","0.0-3.0-0.27","","fixation","","",""
"2657","a_b montage/ab_147.jpg","66","image-keyboard-response","58","134445","0.0-3.0-1.27","","","Update","b","true"
"null","<div style=""font-size:60px;"">+</div>","null","html-keyboard-response","59","134947","0.0-3.0-0.28","","fixation","","",""
"2650","b_a montage/ba_047.jpg","82","image-keyboard-response","60","137601","0.0-3.0-1.28","","","Repeat","r","true"
"null","<div style=""font-size:60px;"">+</div>","null","html-keyboard-response","61","138102","0.0-3.0-0.29","","fixation","","",""
"3044","b_a montage/ba_168.jpg","82","image-keyboard-response","62","141149","0.0-3.0-1.29","","","Set_2_Only","r","true"
"null","<div style=""font-size:60px;"">+</div>","null","html-keyboard-response","63","141650","0.0-3.0-0.30","","fixation","","",""
"3866","a_b montage/ab_104.jpg","76","image-keyboard-response","64","145519","0.0-3.0-1.30","","","Update","b","false"
"null","<div style=""font-size:60px;"">+</div>","null","html-keyboard-response","65","146021","0.0-3.0-0.31","","fixation","","",""
"1960","a_b montage/ab_159.jpg","82","image-keyboard-response","66","147982","0.0-3.0-1.31","","","Update","b","false"
"null","<div style=""font-size:60px;"">+</div>","null","html-keyboard-response","67","148484","0.0-3.0-0.32","","fixation","","",""
"4561","a_b montage/ab_091.jpg","76","image-keyboard-response","68","153047","0.0-3.0-1.32","","","Repeat","l","true"
"null","<div style=""font-size:60px;"">+</div>","null","html-keyboard-response","69","153548","0.0-3.0-0.33","","fixation","","",""
"2546","a_b montage/ab_185.jpg","76","image-keyboard-response","70","156095","0.0-3.0-1.33","","","Set_2_Only","l","true"
"null","<div style=""font-size:60px;"">+</div>","null","html-keyboard-response","71","156597","0.0-3.0-0.34","","fixation","","",""
"2392","a_b montage/ab_107.jpg","82","image-keyboard-response","72","158991","0.0-3.0-1.34","","","Update","b","false"
"null","<div style=""font-size:60px;"">+</div>","null","html-keyboard-response","73","159491","0.0-3.0-0.35","","fixation","","",""
"2937","b_a montage/ba_163.jpg","82","image-keyboard-response","74","162430","0.0-3.0-1.35","","","Set_2_Only","r","true"
"null","<div style=""font-size:60px;"">+</div>","null","html-keyboard-response","75","162932","0.0-3.0-0.36","","fixation","","",""
"1888","a_b new/ab_011.jpg","78","image-keyboard-response","76","164822","0.0-3.0-1.36","","","Neither","n","true"
"null","<div style=""font-size:60px;"">+</div>","null","html-keyboard-response","77","165327","0.0-3.0-0.37","","fixation","","",""
"3998","a_b montage/ab_182.jpg","82","image-keyboard-response","78","169327","0.0-3.0-1.37","","","Set_2_Only","l","false"
"null","<div style=""font-size:60px;"">+</div>","null","html-keyboard-response","79","169828","0.0-3.0-0.38","","fixation","","",""
"2818","a_b montage/ab_188.jpg","82","image-keyboard-response","80","172648","0.0-3.0-1.38","","","Set_2_Only","l","false"
"null","<div style=""font-size:60px;"">+</div>","null","html-keyboard-response","81","173149","0.0-3.0-0.39","","fixation","","",""
"2601","a_b montage/ab_099.jpg","82","image-keyboard-response","82","175752","0.0-3.0-1.39","","","Update","b","false"
"null","<div style=""font-size:60px;"">+</div>","null","html-keyboard-response","83","176253","0.0-3.0-0.40","","fixation","","",""
"3330","a_b montage/ab_127.jpg","66","image-keyboard-response","84","179584","0.0-3.0-1.40","","","Update","b","true"
"null","<div style=""font-size:60px;"">+</div>","null","html-keyboard-response","85","180085","0.0-3.0-0.41","","fixation","","",""
"2490","b_a montage/ba_050.jpg","82","image-keyboard-response","86","182576","0.0-3.0-1.41","","","Repeat","r","true"
"null","<div style=""font-size:60px;"">+</div>","null","html-keyboard-response","87","183078","0.0-3.0-0.42","","fixation","","",""
"2041","a_b montage/ab_142.jpg","82","image-keyboard-response","88","185120","0.0-3.0-1.42","","","Update","b","false"
"null","<div style=""font-size:60px;"">+</div>","null","html-keyboard-response","89","185621","0.0-3.0-0.43","","fixation","","",""
"4815","b_a montage/ba_056.jpg","66","image-keyboard-response","90","190437","0.0-3.0-1.43","","","Repeat","r","false"
"null","<div style=""font-size:60px;"">+</div>","null","html-keyboard-response","91","190939","0.0-3.0-0.44","","fixation","","",""
"2735","a_b montage/ab_150.jpg","82","image-keyboard-response","92","193677","0.0-3.0-1.44","","","Update","b","false"
"null","<div style=""font-size:60px;"">+</div>","null","html-keyboard-response","93","194178","0.0-3.0-0.45","","fixation","","",""
"2129","a_b montage/ab_020.jpg","76","image-keyboard-response","94","196309","0.0-3.0-1.45","","","Set_1_Only","l","true"
"null","<div style=""font-size:60px;"">+</div>","null","html-keyboard-response","95","196811","0.0-3.0-0.46","","fixation","","",""
"3519","a_b montage/ab_139.jpg","76","image-keyboard-response","96","200331","0.0-3.0-1.46","","","Update","b","false"
"null","<div style=""font-size:60px;"">+</div>","null","html-keyboard-response","97","200833","0.0-3.0-0.47","","fixation","","",""
"3016","a_b montage/ab_149.jpg","76","image-keyboard-response","98","203851","0.0-3.0-1.47","","","Update","b","false"
"null","<div style=""font-size:60px;"">+</div>","null","html-keyboard-response","99","204352","0.0-3.0-0.48","","fixation","","",""
"3010","a_b new/ab_003.jpg","78","image-keyboard-response","100","207363","0.0-3.0-1.48","","","Neither","n","true"
"null","<div style=""font-size:60px;"">+</div>","null","html-keyboard-response","101","207865","0.0-3.0-0.49","","fixation","","",""
"2688","a_b montage/ab_098.jpg","82","image-keyboard-response","102","210555","0.0-3.0-1.49","","","Update","b","false"
"null","<div style=""font-size:60px;"">+</div>","null","html-keyboard-response","103","211057","0.0-3.0-0.50","","fixation","","",""
"2856","a_b montage/ab_084.jpg","76","image-keyboard-response","104","213915","0.0-3.0-1.50","","","Repeat","l","true"
"null","<div style=""font-size:60px;"">+</div>","null","html-keyboard-response","105","214416","0.0-3.0-0.51","","fixation","","",""
"3254","a_b montage/ab_177.jpg","76","image-keyboard-response","106","217672","0.0-3.0-1.51","","","Set_2_Only","l","true"
"null","<div style=""font-size:60px;"">+</div>","null","html-keyboard-response","107","218174","0.0-3.0-0.52","","fixation","","",""
"2505","a_b montage/ab_111.jpg","82","image-keyboard-response","108","220680","0.0-3.0-1.52","","","Update","b","false"
"null","<div style=""font-size:60px;"">+</div>","null","html-keyboard-response","109","221182","0.0-3.0-0.53","","fixation","","",""
"2169","a_b montage/ab_090.jpg","76","image-keyboard-response","110","223352","0.0-3.0-1.53","","","Repeat","l","true"
"null","<div style=""font-size:60px;"">+</div>","null","html-keyboard-response","111","223854","0.0-3.0-0.54","","fixation","","",""
"2353","b_a montage/ba_012.jpg","82","image-keyboard-response","112","226208","0.0-3.0-1.54","","","Set_1_Only","r","true"
"null","<div style=""font-size:60px;"">+</div>","null","html-keyboard-response","113","226715","0.0-3.0-0.55","","fixation","","",""
"2524","b_a montage/ba_039.jpg","82","image-keyboard-response","114","229240","0.0-3.0-1.55","","","Repeat","r","true"
"null","<div style=""font-size:60px;"">+</div>","null","html-keyboard-response","115","229742","0.0-3.0-0.56","","fixation","","",""
"2888","a_b montage/ab_125.jpg","66","image-keyboard-response","116","232631","0.0-3.0-1.56","","","Update","b","true"
"null","<div style=""font-size:60px;"">+</div>","null","html-keyboard-response","117","233133","0.0-3.0-0.57","","fixation","","",""
"2521","b_a montage/ba_172.jpg","82","image-keyboard-response","118","235656","0.0-3.0-1.57","","","Set_2_Only","r","true"
"null","<div style=""font-size:60px;"">+</div>","null","html-keyboard-response","119","236157","0.0-3.0-0.58","","fixation","","",""
"2057","b_a montage/ba_046.jpg","82","image-keyboard-response","120","238215","0.0-3.0-1.58","","","Repeat","r","true"
"null","<div style=""font-size:60px;"">+</div>","null","html-keyboard-response","121","238717","0.0-3.0-0.59","","fixation","","",""
"1649","b_a montage/ba_004.jpg","78","image-keyboard-response","122","240367","0.0-3.0-1.59","","","Set_1_Only","r","false"
"null","<div style=""font-size:60px;"">+</div>","null","html-keyboard-response","123","240870","0.0-3.0-0.60","","fixation","","",""
"2357","b_a montage/ba_062.jpg","82","image-keyboard-response","124","243239","0.0-3.0-1.60","","","Repeat","r","true"
"null","<div style=""font-size:60px;"">+</div>","null","html-keyboard-response","125","243741","0.0-3.0-0.61","","fixation","","",""
"3145","b_a montage/ba_166.jpg","82","image-keyboard-response","126","246887","0.0-3.0-1.61","","","Set_2_Only","r","true"
"null","<div style=""font-size:60px;"">+</div>","null","html-keyboard-response","127","247389","0.0-3.0-0.62","","fixation","","",""
"2113","a_b montage/ab_148.jpg","82","image-keyboard-response","128","249503","0.0-3.0-1.62","","","Update","b","false"
"null","<div style=""font-size:60px;"">+</div>","null","html-keyboard-response","129","250005","0.0-3.0-0.63","","fixation","","",""
"3121","a_b montage/ab_108.jpg","76","image-keyboard-response","130","253127","0.0-3.0-1.63","","","Update","b","false"
"null","<div style=""font-size:60px;"">+</div>","null","html-keyboard-response","131","253629","0.0-3.0-0.64","","fixation","","",""
"2265","a_b new/ab_010.jpg","78","image-keyboard-response","132","255895","0.0-3.0-1.64","","","Neither","n","true"
"null","<div style=""font-size:60px;"">+</div>","null","html-keyboard-response","133","256396","0.0-3.0-0.65","","fixation","","",""
"2570","b_a montage/ba_011.jpg","82","image-keyboard-response","134","258967","0.0-3.0-1.65","","","Set_1_Only","r","true"
"null","<div style=""font-size:60px;"">+</div>","null","html-keyboard-response","135","259468","0.0-3.0-0.66","","fixation","","",""
"2705","a_b montage/ab_180.jpg","76","image-keyboard-response","136","262175","0.0-3.0-1.66","","","Set_2_Only","l","true"
"null","<div style=""font-size:60px;"">+</div>","null","html-keyboard-response","137","262677","0.0-3.0-0.67","","fixation","","",""
"1760","b_a montage/ba_015.jpg","78","image-keyboard-response","138","264439","0.0-3.0-1.67","","","Set_1_Only","r","false"
"null","<div style=""font-size:60px;"">+</div>","null","html-keyboard-response","139","264941","0.0-3.0-0.68","","fixation","","",""
"3000","b_a montage/ba_058.jpg","82","image-keyboard-response","140","267942","0.0-3.0-1.68","","","Repeat","r","true"
"null","<div style=""font-size:60px;"">+</div>","null","html-keyboard-response","141","268444","0.0-3.0-0.69","","fixation","","",""
"2265","a_b montage/ab_154.jpg","82","image-keyboard-response","142","270710","0.0-3.0-1.69","","","Update","b","false"
"null","<div style=""font-size:60px;"">+</div>","null","html-keyboard-response","143","271212","0.0-3.0-0.70","","fixation","","",""
"2009","a_b montage/ab_112.jpg","82","image-keyboard-response","144","273222","0.0-3.0-1.70","","","Update","b","false"
"null","<div style=""font-size:60px;"">+</div>","null","html-keyboard-response","145","273724","0.0-3.0-0.71","","fixation","","",""
"4119","a_b montage/ab_183.jpg","76","image-keyboard-response","146","277845","0.0-3.0-1.71","","","Set_2_Only","l","true"
"null","<div style=""font-size:60px;"">+</div>","null","html-keyboard-response","147","278346","0.0-3.0-0.72","","fixation","","",""
"2649","a_b montage/ab_192.jpg","76","image-keyboard-response","148","280997","0.0-3.0-1.72","","","Set_2_Only","l","true"
"null","<div style=""font-size:60px;"">+</div>","null","html-keyboard-response","149","281499","0.0-3.0-0.73","","fixation","","",""
"2417","a_b montage/ab_113.jpg","76","image-keyboard-response","150","283917","0.0-3.0-1.73","","","Update","b","false"
"null","<div style=""font-size:60px;"">+</div>","null","html-keyboard-response","151","284419","0.0-3.0-0.74","","fixation","","",""
"2514","b_a montage/ba_037.jpg","82","image-keyboard-response","152","286934","0.0-3.0-1.74","","","Repeat","r","true"
"null","<div style=""font-size:60px;"">+</div>","null","html-keyboard-response","153","287436","0.0-3.0-0.75","","fixation","","",""
"2234","a_b montage/ab_019.jpg","78","image-keyboard-response","154","289672","0.0-3.0-1.75","","","Set_1_Only","l","false"
"null","<div style=""font-size:60px;"">+</div>","null","html-keyboard-response","155","290173","0.0-3.0-0.76","","fixation","","",""
"3781","a_b montage/ab_018.jpg","78","image-keyboard-response","156","293957","0.0-3.0-1.76","","","Set_1_Only","l","false"
"null","<div style=""font-size:60px;"">+</div>","null","html-keyboard-response","157","294483","0.0-3.0-0.77","","fixation","","",""
"2841","a_b montage/ab_085.jpg","76","image-keyboard-response","158","297325","0.0-3.0-1.77","","","Repeat","l","true"
"null","<div style=""font-size:60px;"">+</div>","null","html-keyboard-response","159","297827","0.0-3.0-0.78","","fixation","","",""
"3600","b_a montage/ba_034.jpg","76","image-keyboard-response","160","301428","0.0-3.0-1.78","","","Repeat","r","false"
"null","<div style=""font-size:60px;"">+</div>","null","html-keyboard-response","161","301930","0.0-3.0-0.79","","fixation","","",""
"2440","a_b montage/ab_117.jpg","82","image-keyboard-response","162","304372","0.0-3.0-1.79","","","Update","b","false"
"null","<div style=""font-size:60px;"">+</div>","null","html-keyboard-response","163","304874","0.0-3.0-0.80","","fixation","","",""
"3196","a_b montage/ab_082.jpg","82","image-keyboard-response","164","308071","0.0-3.0-1.80","","","Repeat","l","false"
"null","<div style=""font-size:60px;"">+</div>","null","html-keyboard-response","165","308573","0.0-3.0-0.81","","fixation","","",""
"2665","a_b montage/ab_092.jpg","66","image-keyboard-response","166","311239","0.0-3.0-1.81","","","Repeat","l","false"
"null","<div style=""font-size:60px;"">+</div>","null","html-keyboard-response","167","311741","0.0-3.0-0.82","","fixation","","",""
"3548","b_a montage/ba_060.jpg","82","image-keyboard-response","168","315291","0.0-3.0-1.82","","","Repeat","r","true"
"null","<div style=""font-size:60px;"">+</div>","null","html-keyboard-response","169","315792","0.0-3.0-0.83","","fixation","","",""
"2152","b_a montage/ba_061.jpg","82","image-keyboard-response","170","317946","0.0-3.0-1.83","","","Repeat","r","true"
"null","<div style=""font-size:60px;"">+</div>","null","html-keyboard-response","171","318447","0.0-3.0-0.84","","fixation","","",""
"3771","a_b montage/ab_158.jpg","66","image-keyboard-response","172","322219","0.0-3.0-1.84","","","Update","b","true"
"null","<div style=""font-size:60px;"">+</div>","null","html-keyboard-response","173","322721","0.0-3.0-0.85","","fixation","","",""
"2280","a_b montage/ab_075.jpg","76","image-keyboard-response","174","325004","0.0-3.0-1.85","","","Repeat","l","true"
"null","<div style=""font-size:60px;"">+</div>","null","html-keyboard-response","175","325505","0.0-3.0-0.86","","fixation","","",""
"3180","a_b montage/ab_086.jpg","82","image-keyboard-response","176","328686","0.0-3.0-1.86","","","Repeat","l","false"
"null","<div style=""font-size:60px;"">+</div>","null","html-keyboard-response","177","329187","0.0-3.0-0.87","","fixation","","",""
"2185","a_b montage/ab_190.jpg","76","image-keyboard-response","178","331374","0.0-3.0-1.87","","","Set_2_Only","l","true"
"null","<div style=""font-size:60px;"">+</div>","null","html-keyboard-response","179","331876","0.0-3.0-0.88","","fixation","","",""
"2496","b_a montage/ba_055.jpg","82","image-keyboard-response","180","334374","0.0-3.0-1.88","","","Repeat","r","true"
"null","<div style=""font-size:60px;"">+</div>","null","html-keyboard-response","181","334876","0.0-3.0-0.89","","fixation","","",""
"4982","a_b montage/ab_135.jpg","66","image-keyboard-response","182","339860","0.0-3.0-1.89","","","Update","b","true"
"null","<div style=""font-size:60px;"">+</div>","null","html-keyboard-response","183","340362","0.0-3.0-0.90","","fixation","","",""
"2648","a_b montage/ab_137.jpg","82","image-keyboard-response","184","343012","0.0-3.0-1.90","","","Update","b","false"
"null","<div style=""font-size:60px;"">+</div>","null","html-keyboard-response","185","343514","0.0-3.0-0.91","","fixation","","",""
"3168","b_a montage/ba_006.jpg","78","image-keyboard-response","186","346684","0.0-3.0-1.91","","","Set_1_Only","r","false"
"null","<div style=""font-size:60px;"">+</div>","null","html-keyboard-response","187","347185","0.0-3.0-0.92","","fixation","","",""
"2217","b_a montage/ba_170.jpg","82","image-keyboard-response","188","349404","0.0-3.0-1.92","","","Set_2_Only","r","true"
"null","<div style=""font-size:60px;"">+</div>","null","html-keyboard-response","189","349906","0.0-3.0-0.93","","fixation","","",""
"2849","b_a montage/ba_051.jpg","82","image-keyboard-response","190","352756","0.0-3.0-1.93","","","Repeat","r","true"
"null","<div style=""font-size:60px;"">+</div>","null","html-keyboard-response","191","353258","0.0-3.0-0.94","","fixation","","",""
"2880","a_b montage/ab_128.jpg","82","image-keyboard-response","192","356140","0.0-3.0-1.94","","","Update","b","false"
"null","<div style=""font-size:60px;"">+</div>","null","html-keyboard-response","193","356641","0.0-3.0-0.95","","fixation","","",""
"1952","a_b montage/ab_145.jpg","82","image-keyboard-response","194","358595","0.0-3.0-1.95","","","Update","b","false"
"null","<div style=""font-size:60px;"">+</div>","null","html-keyboard-response","195","359097","0.0-3.0-0.96","","fixation","","",""
"2241","a_b montage/ab_031.jpg","78","image-keyboard-response","196","361339","0.0-3.0-1.96","","","Set_1_Only","l","false"
"null","<div style=""font-size:60px;"">+</div>","null","html-keyboard-response","197","361841","0.0-3.0-0.97","","fixation","","",""
"3432","a_b montage/ab_071.jpg","82","image-keyboard-response","198","365275","0.0-3.0-1.97","","","Repeat","l","false"
"null","<div style=""font-size:60px;"">+</div>","null","html-keyboard-response","199","365777","0.0-3.0-0.98","","fixation","","",""
"null","b_a montage/ba_120.jpg","null","image-keyboard-response","200","375779","0.0-3.0-1.98","","","Update","b","false"
"null","<div style=""font-size:60px;"">+</div>","null","html-keyboard-response","201","376281","0.0-3.0-0.99","","fixation","","",""
"3408","b_a montage/ba_143.jpg","82","image-keyboard-response","202","379691","0.0-3.0-1.99","","","Update","b","false"
"null","<div style=""font-size:60px;"">+</div>","null","html-keyboard-response","203","380192","0.0-3.0-0.100","","fixation","","",""
"2418","b_a montage/ba_146.jpg","76","image-keyboard-response","204","382611","0.0-3.0-1.100","","","Update","b","false"
"null","<div style=""font-size:60px;"">+</div>","null","html-keyboard-response","205","383113","0.0-3.0-0.101","","fixation","","",""
"1720","a_b new/ab_015.jpg","78","image-keyboard-response","206","384834","0.0-3.0-1.101","","","Neither","n","true"
"null","<div style=""font-size:60px;"">+</div>","null","html-keyboard-response","207","385336","0.0-3.0-0.102","","fixation","","",""
"2617","b_a montage/ba_097.jpg","76","image-keyboard-response","208","387955","0.0-3.0-1.102","","","Update","b","false"
"null","<div style=""font-size:60px;"">+</div>","null","html-keyboard-response","209","388457","0.0-3.0-0.103","","fixation","","",""
"2192","b_a montage/ba_036.jpg","66","image-keyboard-response","210","390651","0.0-3.0-1.103","","","Repeat","r","false"
"null","<div style=""font-size:60px;"">+</div>","null","html-keyboard-response","211","391153","0.0-3.0-0.104","","fixation","","",""
"3152","b_a montage/ba_136.jpg","76","image-keyboard-response","212","394306","0.0-3.0-1.104","","","Update","b","false"
"null","<div style=""font-size:60px;"">+</div>","null","html-keyboard-response","213","394808","0.0-3.0-0.105","","fixation","","",""
"3057","a_b montage/ab_073.jpg","66","image-keyboard-response","214","397866","0.0-3.0-1.105","","","Repeat","l","false"
"null","<div style=""font-size:60px;"">+</div>","null","html-keyboard-response","215","398368","0.0-3.0-0.106","","fixation","","",""
"3433","b_a montage/ba_133.jpg","76","image-keyboard-response","216","401802","0.0-3.0-1.106","","","Update","b","false"
"null","<div style=""font-size:60px;"">+</div>","null","html-keyboard-response","217","402303","0.0-3.0-0.107","","fixation","","",""
"2633","b_a montage/ba_045.jpg","82","image-keyboard-response","218","404938","0.0-3.0-1.107","","","Repeat","r","true"
"null","<div style=""font-size:60px;"">+</div>","null","html-keyboard-response","219","405440","0.0-3.0-0.108","","fixation","","",""
"2793","a_b montage/ab_081.jpg","76","image-keyboard-response","220","408234","0.0-3.0-1.108","","","Repeat","l","true"
"null","<div style=""font-size:60px;"">+</div>","null","html-keyboard-response","221","408736","0.0-3.0-0.109","","fixation","","",""
"2352","a_b montage/ab_089.jpg","76","image-keyboard-response","222","411090","0.0-3.0-1.109","","","Repeat","l","true"
"null","<div style=""font-size:60px;"">+</div>","null","html-keyboard-response","223","411592","0.0-3.0-0.110","","fixation","","",""
"1784","a_b new/ab_005.jpg","78","image-keyboard-response","224","413377","0.0-3.0-1.110","","","Neither","n","true"
"null","<div style=""font-size:60px;"">+</div>","null","html-keyboard-response","225","413879","0.0-3.0-0.111","","fixation","","",""
"3829","b_a montage/ba_053.jpg","82","image-keyboard-response","226","417710","0.0-3.0-1.111","","","Repeat","r","true"
"null","<div style=""font-size:60px;"">+</div>","null","html-keyboard-response","227","418212","0.0-3.0-0.112","","fixation","","",""
"4144","b_a montage/ba_119.jpg","78","image-keyboard-response","228","422357","0.0-3.0-1.112","","","Update","b","false"
"null","<div style=""font-size:60px;"">+</div>","null","html-keyboard-response","229","422859","0.0-3.0-0.113","","fixation","","",""
"2656","b_a montage/ba_171.jpg","76","image-keyboard-response","230","425517","0.0-3.0-1.113","","","Set_2_Only","r","false"
"null","<div style=""font-size:60px;"">+</div>","null","html-keyboard-response","231","426019","0.0-3.0-0.114","","fixation","","",""
"3889","b_a montage/ba_110.jpg","76","image-keyboard-response","232","429910","0.0-3.0-1.114","","","Update","b","false"
"null","<div style=""font-size:60px;"">+</div>","null","html-keyboard-response","233","430412","0.0-3.0-0.115","","fixation","","",""
"2464","b_a montage/ba_116.jpg","76","image-keyboard-response","234","432877","0.0-3.0-1.115","","","Update","b","false"
"null","<div style=""font-size:60px;"">+</div>","null","html-keyboard-response","235","433380","0.0-3.0-0.116","","fixation","","",""
"1944","a_b montage/ab_024.jpg","78","image-keyboard-response","236","435325","0.0-3.0-1.116","","","Set_1_Only","l","false"
"null","<div style=""font-size:60px;"">+</div>","null","html-keyboard-response","237","435827","0.0-3.0-0.117","","fixation","","",""
"2489","a_b montage/ab_026.jpg","78","image-keyboard-response","238","438317","0.0-3.0-1.117","","","Set_1_Only","l","false"
"null","<div style=""font-size:60px;"">+</div>","null","html-keyboard-response","239","438819","0.0-3.0-0.118","","fixation","","",""
"2081","b_a montage/ba_052.jpg","82","image-keyboard-response","240","440901","0.0-3.0-1.118","","","Repeat","r","true"
"null","<div style=""font-size:60px;"">+</div>","null","html-keyboard-response","241","441403","0.0-3.0-0.119","","fixation","","",""
"2072","a_b montage/ab_094.jpg","76","image-keyboard-response","242","443477","0.0-3.0-1.119","","","Repeat","l","true"
"null","<div style=""font-size:60px;"">+</div>","null","html-keyboard-response","243","443978","0.0-3.0-0.120","","fixation","","",""
"3091","b_a montage/ba_101.jpg","76","image-keyboard-response","244","447071","0.0-3.0-1.120","","","Update","b","false"
"null","<div style=""font-size:60px;"">+</div>","null","html-keyboard-response","245","447574","0.0-3.0-0.121","","fixation","","",""
"2597","b_a montage/ba_152.jpg","82","image-keyboard-response","246","450173","0.0-3.0-1.121","","","Update","b","false"
"null","<div style=""font-size:60px;"">+</div>","null","html-keyboard-response","247","450674","0.0-3.0-0.122","","fixation","","",""
"2457","a_b montage/ab_093.jpg","76","image-keyboard-response","248","453132","0.0-3.0-1.122","","","Repeat","l","true"
"null","<div style=""font-size:60px;"">+</div>","null","html-keyboard-response","249","453634","0.0-3.0-0.123","","fixation","","",""
"1944","a_b new/ab_007.jpg","78","image-keyboard-response","250","455580","0.0-3.0-1.123","","","Neither","n","true"
"null","<div style=""font-size:60px;"">+</div>","null","html-keyboard-response","251","456083","0.0-3.0-0.124","","fixation","","",""
"3552","b_a montage/ba_102.jpg","82","image-keyboard-response","252","459636","0.0-3.0-1.124","","","Update","b","false"
"null","<div style=""font-size:60px;"">+</div>","null","html-keyboard-response","253","460138","0.0-3.0-0.125","","fixation","","",""
"1520","a_b montage/ab_021.jpg","78","image-keyboard-response","254","461660","0.0-3.0-1.125","","","Set_1_Only","l","false"
"null","<div style=""font-size:60px;"">+</div>","null","html-keyboard-response","255","462162","0.0-3.0-0.126","","fixation","","",""
"2855","a_b montage/ab_065.jpg","76","image-keyboard-response","256","465020","0.0-3.0-1.126","","","Repeat","l","true"
"null","<div style=""font-size:60px;"">+</div>","null","html-keyboard-response","257","465522","0.0-3.0-0.127","","fixation","","",""
"1736","a_b new/ab_002.jpg","78","image-keyboard-response","258","467260","0.0-3.0-1.127","","","Neither","n","true"
"null","<div style=""font-size:60px;"">+</div>","null","html-keyboard-response","259","467762","0.0-3.0-0.128","","fixation","","",""
"2392","b_a montage/ba_057.jpg","82","image-keyboard-response","260","470155","0.0-3.0-1.128","","","Repeat","r","true"
"null","<div style=""font-size:60px;"">+</div>","null","html-keyboard-response","261","470657","0.0-3.0-0.129","","fixation","","",""
"2648","b_a montage/ba_167.jpg","82","image-keyboard-response","262","473307","0.0-3.0-1.129","","","Set_2_Only","r","true"
"null","<div style=""font-size:60px;"">+</div>","null","html-keyboard-response","263","473810","0.0-3.0-0.130","","fixation","","",""
"3384","b_a montage/ba_160.jpg","82","image-keyboard-response","264","477195","0.0-3.0-1.130","","","Update","b","false"
"null","<div style=""font-size:60px;"">+</div>","null","html-keyboard-response","265","477697","0.0-3.0-0.131","","fixation","","",""
"1808","b_a montage/ba_005.jpg","78","image-keyboard-response","266","479507","0.0-3.0-1.131","","","Set_1_Only","r","false"
"null","<div style=""font-size:60px;"">+</div>","null","html-keyboard-response","267","480009","0.0-3.0-0.132","","fixation","","",""
"2488","b_a montage/ba_140.jpg","82","image-keyboard-response","268","482499","0.0-3.0-1.132","","","Update","b","false"
"null","<div style=""font-size:60px;"">+</div>","null","html-keyboard-response","269","483001","0.0-3.0-0.133","","fixation","","",""
"2417","b_a new/ba_006.jpg","78","image-keyboard-response","270","485419","0.0-3.0-1.133","","","Neither","n","true"
"null","<div style=""font-size:60px;"">+</div>","null","html-keyboard-response","271","485921","0.0-3.0-0.134","","fixation","","",""
"3323","b_a montage/ba_123.jpg","76","image-keyboard-response","272","489246","0.0-3.0-1.134","","","Update","b","false"
"null","<div style=""font-size:60px;"">+</div>","null","html-keyboard-response","273","489748","0.0-3.0-0.135","","fixation","","",""
"2672","b_a montage/ba_033.jpg","82","image-keyboard-response","274","492421","0.0-3.0-1.135","","","Repeat","r","true"
"null","<div style=""font-size:60px;"">+</div>","null","html-keyboard-response","275","492924","0.0-3.0-0.136","","fixation","","",""
"1912","a_b montage/ab_077.jpg","76","image-keyboard-response","276","494837","0.0-3.0-1.136","","","Repeat","l","true"
"null","<div style=""font-size:60px;"">+</div>","null","html-keyboard-response","277","495339","0.0-3.0-0.137","","fixation","","",""
"1570","a_b montage/ab_032.jpg","78","image-keyboard-response","278","496910","0.0-3.0-1.137","","","Set_1_Only","l","false"
"null","<div style=""font-size:60px;"">+</div>","null","html-keyboard-response","279","497412","0.0-3.0-0.138","","fixation","","",""
"2360","b_a montage/ba_156.jpg","76","image-keyboard-response","280","499774","0.0-3.0-1.138","","","Update","b","false"
"null","<div style=""font-size:60px;"">+</div>","null","html-keyboard-response","281","500276","0.0-3.0-0.139","","fixation","","",""
"1649","a_b montage/ab_022.jpg","78","image-keyboard-response","282","501926","0.0-3.0-1.139","","","Set_1_Only","l","false"
"null","<div style=""font-size:60px;"">+</div>","null","html-keyboard-response","283","502428","0.0-3.0-0.140","","fixation","","",""
"2281","b_a montage/ba_114.jpg","66","image-keyboard-response","284","504710","0.0-3.0-1.140","","","Update","b","true"
"null","<div style=""font-size:60px;"">+</div>","null","html-keyboard-response","285","505212","0.0-3.0-0.141","","fixation","","",""
"3478","b_a new/ba_013.jpg","76","image-keyboard-response","286","508693","0.0-3.0-1.141","","","Neither","n","false"
"null","<div style=""font-size:60px;"">+</div>","null","html-keyboard-response","287","509194","0.0-3.0-0.142","","fixation","","",""
"1753","a_b montage/ab_023.jpg","78","image-keyboard-response","288","510949","0.0-3.0-1.142","","","Set_1_Only","l","false"
"null","<div style=""font-size:60px;"">+</div>","null","html-keyboard-response","289","511451","0.0-3.0-0.143","","fixation","","",""
"1920","a_b montage/ab_087.jpg","76","image-keyboard-response","290","513373","0.0-3.0-1.143","","","Repeat","l","true"
"null","<div style=""font-size:60px;"">+</div>","null","html-keyboard-response","291","513875","0.0-3.0-0.144","","fixation","","",""
"2736","b_a montage/ba_155.jpg","82","image-keyboard-response","292","516613","0.0-3.0-1.144","","","Update","b","false"
"null","<div style=""font-size:60px;"">+</div>","null","html-keyboard-response","293","517116","0.0-3.0-0.145","","fixation","","",""
"1592","b_a montage/ba_002.jpg","78","image-keyboard-response","294","518709","0.0-3.0-1.145","","","Set_1_Only","r","false"
"null","<div style=""font-size:60px;"">+</div>","null","html-keyboard-response","295","519211","0.0-3.0-0.146","","fixation","","",""
"3193","b_a montage/ba_161.jpg","82","image-keyboard-response","296","522406","0.0-3.0-1.146","","","Set_2_Only","r","true"
"null","<div style=""font-size:60px;"">+</div>","null","html-keyboard-response","297","522909","0.0-3.0-0.147","","fixation","","",""
"1560","a_b montage/ab_029.jpg","78","image-keyboard-response","298","524472","0.0-3.0-1.147","","","Set_1_Only","l","false"
"null","<div style=""font-size:60px;"">+</div>","null","html-keyboard-response","299","524975","0.0-3.0-0.148","","fixation","","",""
"3315","a_b montage/ab_030.jpg","82","image-keyboard-response","300","528292","0.0-3.0-1.148","","","Set_1_Only","l","false"
"null","<div style=""font-size:60px;"">+</div>","null","html-keyboard-response","301","528794","0.0-3.0-0.149","","fixation","","",""
"1696","b_a new/ba_004.jpg","78","image-keyboard-response","302","530492","0.0-3.0-1.149","","","Neither","n","true"
"null","<div style=""font-size:60px;"">+</div>","null","html-keyboard-response","303","530994","0.0-3.0-0.150","","fixation","","",""
"3566","b_a montage/ba_049.jpg","78","image-keyboard-response","304","534561","0.0-3.0-1.150","","","Repeat","r","false"
"null","<div style=""font-size:60px;"">+</div>","null","html-keyboard-response","305","535063","0.0-3.0-0.151","","fixation","","",""
"3417","a_b montage/ab_027.jpg","78","image-keyboard-response","306","538481","0.0-3.0-1.151","","","Set_1_Only","l","false"
"null","<div style=""font-size:60px;"">+</div>","null","html-keyboard-response","307","538983","0.0-3.0-0.152","","fixation","","",""
"1896","b_a montage/ba_008.jpg","78","image-keyboard-response","308","540881","0.0-3.0-1.152","","","Set_1_Only","r","false"
"null","<div style=""font-size:60px;"">+</div>","null","html-keyboard-response","309","541383","0.0-3.0-0.153","","fixation","","",""
"3617","b_a montage/ba_048.jpg","76","image-keyboard-response","310","545002","0.0-3.0-1.153","","","Repeat","r","false"
"null","<div style=""font-size:60px;"">+</div>","null","html-keyboard-response","311","545504","0.0-3.0-0.154","","fixation","","",""
"1712","a_b montage/ab_191.jpg","78","image-keyboard-response","312","547218","0.0-3.0-1.154","","","Set_2_Only","l","false"
"null","<div style=""font-size:60px;"">+</div>","null","html-keyboard-response","313","547720","0.0-3.0-0.155","","fixation","","",""
"2568","a_b montage/ab_186.jpg","76","image-keyboard-response","314","550290","0.0-3.0-1.155","","","Set_2_Only","l","true"
"null","<div style=""font-size:60px;"">+</div>","null","html-keyboard-response","315","550793","0.0-3.0-0.156","","fixation","","",""
"2271","b_a montage/ba_157.jpg","76","image-keyboard-response","316","553066","0.0-3.0-1.156","","","Update","b","false"
"null","<div style=""font-size:60px;"">+</div>","null","html-keyboard-response","317","553567","0.0-3.0-0.157","","fixation","","",""
"2985","a_b montage/ab_072.jpg","76","image-keyboard-response","318","556554","0.0-3.0-1.157","","","Repeat","l","true"
"null","<div style=""font-size:60px;"">+</div>","null","html-keyboard-response","319","557056","0.0-3.0-0.158","","fixation","","",""
"2833","b_a montage/ba_173.jpg","76","image-keyboard-response","320","559890","0.0-3.0-1.158","","","Set_2_Only","r","false"
"null","<div style=""font-size:60px;"">+</div>","null","html-keyboard-response","321","560392","0.0-3.0-0.159","","fixation","","",""
"3710","a_b montage/ab_187.jpg","66","image-keyboard-response","322","564103","0.0-3.0-1.159","","","Set_2_Only","l","false"
"null","<div style=""font-size:60px;"">+</div>","null","html-keyboard-response","323","564605","0.0-3.0-0.160","","fixation","","",""
"2105","b_a montage/ba_016.jpg","78","image-keyboard-response","324","566711","0.0-3.0-1.160","","","Set_1_Only","r","false"
"null","<div style=""font-size:60px;"">+</div>","null","html-keyboard-response","325","567213","0.0-3.0-0.161","","fixation","","",""
"3783","a_b montage/ab_095.jpg","76","image-keyboard-response","326","570999","0.0-3.0-1.161","","","Repeat","l","true"
"null","<div style=""font-size:60px;"">+</div>","null","html-keyboard-response","327","571500","0.0-3.0-0.162","","fixation","","",""
"1928","a_b montage/ab_178.jpg","76","image-keyboard-response","328","573431","0.0-3.0-1.162","","","Set_2_Only","l","true"
"null","<div style=""font-size:60px;"">+</div>","null","html-keyboard-response","329","573933","0.0-3.0-0.163","","fixation","","",""
"1593","b_a new/ba_014.jpg","78","image-keyboard-response","330","575527","0.0-3.0-1.163","","","Neither","n","true"
"null","<div style=""font-size:60px;"">+</div>","null","html-keyboard-response","331","576029","0.0-3.0-0.164","","fixation","","",""
"2864","b_a montage/ba_126.jpg","76","image-keyboard-response","332","578895","0.0-3.0-1.164","","","Update","b","false"
"null","<div style=""font-size:60px;"">+</div>","null","html-keyboard-response","333","579397","0.0-3.0-0.165","","fixation","","",""
"2360","b_a montage/ba_134.jpg","82","image-keyboard-response","334","581759","0.0-3.0-1.165","","","Update","b","false"
"null","<div style=""font-size:60px;"">+</div>","null","html-keyboard-response","335","582261","0.0-3.0-0.166","","fixation","","",""
"3399","b_a montage/ba_162.jpg","82","image-keyboard-response","336","585662","0.0-3.0-1.166","","","Set_2_Only","r","true"
"null","<div style=""font-size:60px;"">+</div>","null","html-keyboard-response","337","586164","0.0-3.0-0.167","","fixation","","",""
"1872","b_a montage/ba_003.jpg","78","image-keyboard-response","338","588038","0.0-3.0-1.167","","","Set_1_Only","r","false"
"null","<div style=""font-size:60px;"">+</div>","null","html-keyboard-response","339","588540","0.0-3.0-0.168","","fixation","","",""
"1880","b_a montage/ba_007.jpg","78","image-keyboard-response","340","590422","0.0-3.0-1.168","","","Set_1_Only","r","false"
"null","<div style=""font-size:60px;"">+</div>","null","html-keyboard-response","341","590924","0.0-3.0-0.169","","fixation","","",""
"4019","b_a montage/ba_063.jpg","82","image-keyboard-response","342","594945","0.0-3.0-1.169","","","Repeat","r","true"
"null","<div style=""font-size:60px;"">+</div>","null","html-keyboard-response","343","595447","0.0-3.0-0.170","","fixation","","",""
"2538","b_a montage/ba_132.jpg","66","image-keyboard-response","344","597986","0.0-3.0-1.170","","","Update","b","true"
"null","<div style=""font-size:60px;"">+</div>","null","html-keyboard-response","345","598488","0.0-3.0-0.171","","fixation","","",""
"2056","a_b montage/ab_096.jpg","78","image-keyboard-response","346","600545","0.0-3.0-1.171","","","Repeat","l","false"
"null","<div style=""font-size:60px;"">+</div>","null","html-keyboard-response","347","601047","0.0-3.0-0.172","","fixation","","",""
"2695","b_a montage/ba_014.jpg","82","image-keyboard-response","348","603744","0.0-3.0-1.172","","","Set_1_Only","r","true"
"null","<div style=""font-size:60px;"">+</div>","null","html-keyboard-response","349","604246","0.0-3.0-0.173","","fixation","","",""
"3033","b_a montage/ba_105.jpg","76","image-keyboard-response","350","607281","0.0-3.0-1.173","","","Update","b","false"
"null","<div style=""font-size:60px;"">+</div>","null","html-keyboard-response","351","607783","0.0-3.0-0.174","","fixation","","",""
"1944","b_a montage/ba_054.jpg","82","image-keyboard-response","352","609729","0.0-3.0-1.174","","","Repeat","r","true"
"null","<div style=""font-size:60px;"">+</div>","null","html-keyboard-response","353","610231","0.0-3.0-0.175","","fixation","","",""
"2055","b_a montage/ba_042.jpg","82","image-keyboard-response","354","612289","0.0-3.0-1.175","","","Repeat","r","true"
"null","<div style=""font-size:60px;"">+</div>","null","html-keyboard-response","355","612791","0.0-3.0-0.176","","fixation","","",""
"1904","a_b montage/ab_074.jpg","76","image-keyboard-response","356","614696","0.0-3.0-1.176","","","Repeat","l","true"
"null","<div style=""font-size:60px;"">+</div>","null","html-keyboard-response","357","615198","0.0-3.0-0.177","","fixation","","",""
"2312","a_b montage/ab_083.jpg","76","image-keyboard-response","358","617512","0.0-3.0-1.177","","","Repeat","l","true"
"null","<div style=""font-size:60px;"">+</div>","null","html-keyboard-response","359","618014","0.0-3.0-0.178","","fixation","","",""
"3057","b_a montage/ba_144.jpg","76","image-keyboard-response","360","621072","0.0-3.0-1.178","","","Update","b","false"
"null","<div style=""font-size:60px;"">+</div>","null","html-keyboard-response","361","621574","0.0-3.0-0.179","","fixation","","",""
"1400","a_b montage/ab_078.jpg","76","image-keyboard-response","362","622976","0.0-3.0-1.179","","","Repeat","l","true"
"null","<div style=""font-size:60px;"">+</div>","null","html-keyboard-response","363","623478","0.0-3.0-0.180","","fixation","","",""
"2744","a_b montage/ab_184.jpg","76","image-keyboard-response","364","626224","0.0-3.0-1.180","","","Set_2_Only","l","true"
"null","<div style=""font-size:60px;"">+</div>","null","html-keyboard-response","365","626726","0.0-3.0-0.181","","fixation","","",""
"2368","b_a montage/ba_121.jpg","76","image-keyboard-response","366","629096","0.0-3.0-1.181","","","Update","b","false"
"null","<div style=""font-size:60px;"">+</div>","null","html-keyboard-response","367","629598","0.0-3.0-0.182","","fixation","","",""
"1632","b_a montage/ba_001.jpg","78","image-keyboard-response","368","631232","0.0-3.0-1.182","","","Set_1_Only","r","false"
"null","<div style=""font-size:60px;"">+</div>","null","html-keyboard-response","369","631734","0.0-3.0-0.183","","fixation","","",""
"2680","b_a montage/ba_106.jpg","76","image-keyboard-response","370","634416","0.0-3.0-1.183","","","Update","b","false"
"null","<div style=""font-size:60px;"">+</div>","null","html-keyboard-response","371","634918","0.0-3.0-0.184","","fixation","","",""
"3079","b_a montage/ba_122.jpg","76","image-keyboard-response","372","637998","0.0-3.0-1.184","","","Update","b","false"
"null","<div style=""font-size:60px;"">+</div>","null","html-keyboard-response","373","638500","0.0-3.0-0.185","","fixation","","",""
"2832","b_a montage/ba_064.jpg","66","image-keyboard-response","374","641334","0.0-3.0-1.185","","","Repeat","r","false"
"null","<div style=""font-size:60px;"">+</div>","null","html-keyboard-response","375","641836","0.0-3.0-0.186","","fixation","","",""
"2880","b_a montage/ba_059.jpg","66","image-keyboard-response","376","644718","0.0-3.0-1.186","","","Repeat","r","false"
"null","<div style=""font-size:60px;"">+</div>","null","html-keyboard-response","377","645220","0.0-3.0-0.187","","fixation","","",""
"3526","b_a montage/ba_175.jpg","82","image-keyboard-response","378","648747","0.0-3.0-1.187","","","Set_2_Only","r","true"
"null","<div style=""font-size:60px;"">+</div>","null","html-keyboard-response","379","649250","0.0-3.0-0.188","","fixation","","",""
"1688","b_a montage/ba_169.jpg","78","image-keyboard-response","380","650940","0.0-3.0-1.188","","","Set_2_Only","r","false"
"null","<div style=""font-size:60px;"">+</div>","null","html-keyboard-response","381","651442","0.0-3.0-0.189","","fixation","","",""
"1832","b_a montage/ba_151.jpg","78","image-keyboard-response","382","653275","0.0-3.0-1.189","","","Update","b","false"
"null","<div style=""font-size:60px;"">+</div>","null","html-keyboard-response","383","653777","0.0-3.0-0.190","","fixation","","",""
"2481","b_a montage/ba_010.jpg","82","image-keyboard-response","384","656259","0.0-3.0-1.190","","","Set_1_Only","r","true"
"null","<div style=""font-size:60px;"">+</div>","null","html-keyboard-response","385","656761","0.0-3.0-0.191","","fixation","","",""
"2056","b_a montage/ba_164.jpg","76","image-keyboard-response","386","658819","0.0-3.0-1.191","","","Set_2_Only","r","false"
"null","<div style=""font-size:60px;"">+</div>","null","html-keyboard-response","387","659321","0.0-3.0-0.192","","fixation","","",""
"3001","a_b montage/ab_070.jpg","76","image-keyboard-response","388","662323","0.0-3.0-1.192","","","Repeat","l","true"
"null","<div style=""font-size:60px;"">+</div>","null","html-keyboard-response","389","662824","0.0-3.0-0.193","","fixation","","",""
"2073","b_a montage/ba_044.jpg","82","image-keyboard-response","390","664899","0.0-3.0-1.193","","","Repeat","r","true"
"null","<div style=""font-size:60px;"">+</div>","null","html-keyboard-response","391","665401","0.0-3.0-0.194","","fixation","","",""
"1704","b_a montage/ba_035.jpg","82","image-keyboard-response","392","667107","0.0-3.0-1.194","","","Repeat","r","true"
"null","<div style=""font-size:60px;"">+</div>","null","html-keyboard-response","393","667608","0.0-3.0-0.195","","fixation","","",""
"1689","b_a montage/ba_040.jpg","76","image-keyboard-response","394","669299","0.0-3.0-1.195","","","Repeat","r","false"
"null","<div style=""font-size:60px;"">+</div>","null","html-keyboard-response","395","669801","0.0-3.0-0.196","","fixation","","",""
"2545","b_a montage/ba_124.jpg","78","image-keyboard-response","396","672347","0.0-3.0-1.196","","","Update","b","false"
"null","<div style=""font-size:60px;"">+</div>","null","html-keyboard-response","397","672849","0.0-3.0-0.197","","fixation","","",""
"4146","a_b montage/ab_025.jpg","76","image-keyboard-response","398","676997","0.0-3.0-1.197","","","Set_1_Only","l","true"
"null","<div style=""font-size:60px;"">+</div>","null","html-keyboard-response","399","677498","0.0-3.0-0.198","","fixation","","",""
"3706","b_a montage/ba_165.jpg","76","image-keyboard-response","400","681205","0.0-3.0-1.198","","","Set_2_Only","r","false"
"null","<div style=""font-size:60px;"">+</div>","null","html-keyboard-response","401","681707","0.0-3.0-0.199","","fixation","","",""
"3514","b_a montage/ba_138.jpg","76","image-keyboard-response","402","685223","0.0-3.0-1.199","","","Update","b","false"
"null","<div style=""font-size:60px;"">+</div>","null","html-keyboard-response","403","685725","0.0-3.0-0.200","","fixation","","",""
"1585","a_b montage/ab_028.jpg","78","image-keyboard-response","404","687311","0.0-3.0-1.200","","","Set_1_Only","l","false"
"null","<div style=""font-size:60px;"">+</div>","null","html-keyboard-response","405","687812","0.0-3.0-0.201","","fixation","","",""
"1914","a_b montage/ab_076.jpg","76","image-keyboard-response","406","689727","0.0-3.0-1.201","","","Repeat","l","true"
"null","<div style=""font-size:60px;"">+</div>","null","html-keyboard-response","407","690229","0.0-3.0-0.202","","fixation","","",""
"1743","b_a new/ba_012.jpg","78","image-keyboard-response","408","691975","0.0-3.0-1.202","","","Neither","n","true"
"null","<div style=""font-size:60px;"">+</div>","null","html-keyboard-response","409","692477","0.0-3.0-0.203","","fixation","","",""
"1736","a_b montage/ab_068.jpg","78","image-keyboard-response","410","694215","0.0-3.0-1.203","","","Repeat","l","false"
"null","<div style=""font-size:60px;"">+</div>","null","html-keyboard-response","411","694717","0.0-3.0-0.204","","fixation","","",""
"2712","b_a montage/ba_115.jpg","66","image-keyboard-response","412","697430","0.0-3.0-1.204","","","Update","b","true"
"null","<div style=""font-size:60px;"">+</div>","null","html-keyboard-response","413","697932","0.0-3.0-0.205","","fixation","","",""
"4352","b_a montage/ba_118.jpg","82","image-keyboard-response","414","702287","0.0-3.0-1.205","","","Update","b","false"
"null","<div style=""font-size:60px;"">+</div>","null","html-keyboard-response","415","702788","0.0-3.0-0.206","","fixation","","",""
"2592","a_b montage/ab_189.jpg","76","image-keyboard-response","416","705382","0.0-3.0-1.206","","","Set_2_Only","l","true"
"null","<div style=""font-size:60px;"">+</div>","null","html-keyboard-response","417","705884","0.0-3.0-0.207","","fixation","","",""
"1856","b_a new/ba_009.jpg","78","image-keyboard-response","418","707742","0.0-3.0-1.207","","","Neither","n","true"
