"rt","stimulus","key_press","trial_type","trial_index","time_elapsed","internal_node_id","responses","test_part","stim_type","correct_response","correct"
"3826","Press any key to begin.","32","html-keyboard-response","0","3829","0.0-0.0","","","","",""
"20921","","","survey-text","1","24753","0.0-1.0","{""Q0"":""Set2128690"",""Q1"":""""}","","","",""
"25116","<p>In this experiment you will see a series of everyday objects presented one at a time at the center of the screen. Each image will be presented twice.</p><p>The first time you see the image, press the N key to indicat that it is a NEW image. The second time you see the image, press the O key to indicate that it is an OLD image.</p><p>Some of the images will be repeats from the first session of this task you did yesterday. I want you to treat those images as 'OLD' if you remember seeing them before. Some of the images will be very similar but not identical to an image that you have seen in the previous set. I want you to treat those images as 'NEW' the first time you see them and 'OLD' the second time.</p><div style='width: 700px;'></div><p>Press any key to begin.</p>","70","html-keyboard-response","2","49870","0.0-2.0","","","","",""
"null","<div style=""font-size:60px;"">+</div>","null","html-keyboard-response","3","52373","0.0-3.0-0.0","","fixation","","",""
"2046","Set1/037a.jpg","79","image-keyboard-response","4","54422","0.0-3.0-1.0","","","Repeat","n","false"
"null","<div style=""font-size:60px;"">+</div>","null","html-keyboard-response","5","54924","0.0-3.0-0.1","","fixation","","",""
"1504","Set1/095a.jpg","79","image-keyboard-response","6","56429","0.0-3.0-1.1","","","Repeat","n","false"
"null","<div style=""font-size:60px;"">+</div>","null","html-keyboard-response","7","56931","0.0-3.0-0.2","","fixation","","",""
"1545","Set1/080a.jpg","79","image-keyboard-response","8","58477","0.0-3.0-1.2","","","Repeat","n","false"
"null","<div style=""font-size:60px;"">+</div>","null","html-keyboard-response","9","58979","0.0-3.0-0.3","","fixation","","",""
"961","Set1/142b.jpg","79","image-keyboard-response","10","59941","0.0-3.0-1.3","","","Update","n","false"
"null","<div style=""font-size:60px;"">+</div>","null","html-keyboard-response","11","60442","0.0-3.0-0.4","","fixation","","",""
"1697","Set1/179a.jpg","78","image-keyboard-response","12","62141","0.0-3.0-1.4","","","Set_2_Only","n","true"
"null","<div style=""font-size:60px;"">+</div>","null","html-keyboard-response","13","62642","0.0-3.0-0.5","","fixation","","",""
"1610","Set1/039a.jpg","79","image-keyboard-response","14","64253","0.0-3.0-1.5","","","Repeat","n","false"
"null","<div style=""font-size:60px;"">+</div>","null","html-keyboard-response","15","64755","0.0-3.0-0.6","","fixation","","",""
"2577","Set1/172a.jpg","79","image-keyboard-response","16","67333","0.0-3.0-1.6","","","Set_2_Only","n","false"
"null","<div style=""font-size:60px;"">+</div>","null","html-keyboard-response","17","67835","0.0-3.0-0.7","","fixation","","",""
"2208","Set1/075a.jpg","78","image-keyboard-response","18","70045","0.0-3.0-1.7","","","Repeat","n","true"
"null","<div style=""font-size:60px;"">+</div>","null","html-keyboard-response","19","70547","0.0-3.0-0.8","","fixation","","",""
"1384","Set1/090a.jpg","78","image-keyboard-response","20","71932","0.0-3.0-1.8","","","Repeat","n","true"
"null","<div style=""font-size:60px;"">+</div>","null","html-keyboard-response","21","72434","0.0-3.0-0.9","","fixation","","",""
"1672","Set1/148b.jpg","78","image-keyboard-response","22","74108","0.0-3.0-1.9","","","Update","n","true"
"null","<div style=""font-size:60px;"">+</div>","null","html-keyboard-response","23","74610","0.0-3.0-0.10","","fixation","","",""
"1041","Set1/172a.jpg","78","image-keyboard-response","24","75653","0.0-3.0-1.10","","","Set_2_Only","o","false"
"null","<div style=""font-size:60px;"">+</div>","null","html-keyboard-response","25","76154","0.0-3.0-0.11","","fixation","","",""
"1457","Set1/035a.jpg","78","image-keyboard-response","26","77612","0.0-3.0-1.11","","","Repeat","n","true"
"null","<div style=""font-size:60px;"">+</div>","null","html-keyboard-response","27","78114","0.0-3.0-0.12","","fixation","","",""
"1497","Set1/170a.jpg","78","image-keyboard-response","28","79612","0.0-3.0-1.12","","","Set_2_Only","n","true"
"null","<div style=""font-size:60px;"">+</div>","null","html-keyboard-response","29","80114","0.0-3.0-0.13","","fixation","","",""
"1762","Set1/179a.jpg","79","image-keyboard-response","30","81876","0.0-3.0-1.13","","","Set_2_Only","o","true"
"null","<div style=""font-size:60px;"">+</div>","null","html-keyboard-response","31","82378","0.0-3.0-0.14","","fixation","","",""
"1153","Set1/153b.jpg","78","image-keyboard-response","32","83532","0.0-3.0-1.14","","","Update","n","true"
"null","<div style=""font-size:60px;"">+</div>","null","html-keyboard-response","33","84034","0.0-3.0-0.15","","fixation","","",""
"1617","Set1/083a.jpg","79","image-keyboard-response","34","85652","0.0-3.0-1.15","","","Repeat","n","false"
"null","<div style=""font-size:60px;"">+</div>","null","html-keyboard-response","35","86154","0.0-3.0-0.16","","fixation","","",""
"1721","Set1/126b.jpg","78","image-keyboard-response","36","87876","0.0-3.0-1.16","","","Update","n","true"
"null","<div style=""font-size:60px;"">+</div>","null","html-keyboard-response","37","88377","0.0-3.0-0.17","","fixation","","",""
"2290","Set1/135b.jpg","78","image-keyboard-response","38","90668","0.0-3.0-1.17","","","Update","n","true"
"null","<div style=""font-size:60px;"">+</div>","null","html-keyboard-response","39","91177","0.0-3.0-0.18","","fixation","","",""
"1480","Set1/108b.jpg","79","image-keyboard-response","40","92660","0.0-3.0-1.18","","","Update","n","false"
"null","<div style=""font-size:60px;"">+</div>","null","html-keyboard-response","41","93161","0.0-3.0-0.19","","fixation","","",""
"1113","Set1/142b.jpg","79","image-keyboard-response","42","94275","0.0-3.0-1.19","","","Update","o","true"
"null","<div style=""font-size:60px;"">+</div>","null","html-keyboard-response","43","94777","0.0-3.0-0.20","","fixation","","",""
"1418","Set1/138b.jpg","78","image-keyboard-response","44","96196","0.0-3.0-1.20","","","Update","n","true"
"null","<div style=""font-size:60px;"">+</div>","null","html-keyboard-response","45","96698","0.0-3.0-0.21","","fixation","","",""
"1168","Set1/171a.jpg","78","image-keyboard-response","46","97868","0.0-3.0-1.21","","","Set_2_Only","n","true"
"null","<div style=""font-size:60px;"">+</div>","null","html-keyboard-response","47","98369","0.0-3.0-0.22","","fixation","","",""
"960","Set1/148b.jpg","79","image-keyboard-response","48","99332","0.0-3.0-1.22","","","Update","o","true"
"null","<div style=""font-size:60px;"">+</div>","null","html-keyboard-response","49","100101","0.0-3.0-0.23","","fixation","","",""
"1213","Set1/083a.jpg","79","image-keyboard-response","50","101316","0.0-3.0-1.23","","","Repeat","o","true"
"null","<div style=""font-size:60px;"">+</div>","null","html-keyboard-response","51","101818","0.0-3.0-0.24","","fixation","","",""
"1064","Set1/141b.jpg","78","image-keyboard-response","52","102883","0.0-3.0-1.24","","","Update","n","true"
"null","<div style=""font-size:60px;"">+</div>","null","html-keyboard-response","53","103385","0.0-3.0-0.25","","fixation","","",""
"1337","Set1/123b.jpg","78","image-keyboard-response","54","104723","0.0-3.0-1.25","","","Update","n","true"
"null","<div style=""font-size:60px;"">+</div>","null","html-keyboard-response","55","105225","0.0-3.0-0.26","","fixation","","",""
"1137","Set1/145b.jpg","78","image-keyboard-response","56","106364","0.0-3.0-1.26","","","Update","n","true"
"null","<div style=""font-size:60px;"">+</div>","null","html-keyboard-response","57","106865","0.0-3.0-0.27","","fixation","","",""
"1039","Set1/175a.jpg","78","image-keyboard-response","58","107906","0.0-3.0-1.27","","","Set_2_Only","n","true"
"null","<div style=""font-size:60px;"">+</div>","null","html-keyboard-response","59","108408","0.0-3.0-0.28","","fixation","","",""
"1778","Set1/177a.jpg","78","image-keyboard-response","60","110187","0.0-3.0-1.28","","","Set_2_Only","n","true"
"null","<div style=""font-size:60px;"">+</div>","null","html-keyboard-response","61","110689","0.0-3.0-0.29","","fixation","","",""
"1120","Set1/119b.jpg","78","image-keyboard-response","62","111811","0.0-3.0-1.29","","","Update","n","true"
"null","<div style=""font-size:60px;"">+</div>","null","html-keyboard-response","63","112312","0.0-3.0-0.30","","fixation","","",""
"1666","Set1/177a.jpg","78","image-keyboard-response","64","113979","0.0-3.0-1.30","","","Set_2_Only","o","false"
"null","<div style=""font-size:60px;"">+</div>","null","html-keyboard-response","65","114480","0.0-3.0-0.31","","fixation","","",""
"1137","Set1/038a.jpg","78","image-keyboard-response","66","115619","0.0-3.0-1.31","","","Repeat","n","true"
"null","<div style=""font-size:60px;"">+</div>","null","html-keyboard-response","67","116120","0.0-3.0-0.32","","fixation","","",""
"866","Set1/035a.jpg","79","image-keyboard-response","68","116987","0.0-3.0-1.32","","","Repeat","o","true"
"null","<div style=""font-size:60px;"">+</div>","null","html-keyboard-response","69","117488","0.0-3.0-0.33","","fixation","","",""
"937","Set1/171a.jpg","79","image-keyboard-response","70","118427","0.0-3.0-1.33","","","Set_2_Only","o","true"
"null","<div style=""font-size:60px;"">+</div>","null","html-keyboard-response","71","118928","0.0-3.0-0.34","","fixation","","",""
"1520","Set1/157b.jpg","78","image-keyboard-response","72","120451","0.0-3.0-1.34","","","Update","n","true"
"null","<div style=""font-size:60px;"">+</div>","null","html-keyboard-response","73","120952","0.0-3.0-0.35","","fixation","","",""
"1209","Set1/170a.jpg","79","image-keyboard-response","74","122162","0.0-3.0-1.35","","","Set_2_Only","o","true"
"null","<div style=""font-size:60px;"">+</div>","null","html-keyboard-response","75","122664","0.0-3.0-0.36","","fixation","","",""
"832","Set1/135b.jpg","79","image-keyboard-response","76","123498","0.0-3.0-1.36","","","Update","o","true"
"null","<div style=""font-size:60px;"">+</div>","null","html-keyboard-response","77","123999","0.0-3.0-0.37","","fixation","","",""
"1265","Set1/090a.jpg","79","image-keyboard-response","78","125267","0.0-3.0-1.37","","","Repeat","o","true"
"null","<div style=""font-size:60px;"">+</div>","null","html-keyboard-response","79","125769","0.0-3.0-0.38","","fixation","","",""
"1336","Set1/095a.jpg","79","image-keyboard-response","80","127106","0.0-3.0-1.38","","","Repeat","o","true"
"null","<div style=""font-size:60px;"">+</div>","null","html-keyboard-response","81","127608","0.0-3.0-0.39","","fixation","","",""
"985","Set1/108b.jpg","79","image-keyboard-response","82","128594","0.0-3.0-1.39","","","Update","o","true"
"null","<div style=""font-size:60px;"">+</div>","null","html-keyboard-response","83","129096","0.0-3.0-0.40","","fixation","","",""
"1056","Set1/040a.jpg","78","image-keyboard-response","84","130155","0.0-3.0-1.40","","","Repeat","n","true"
"null","<div style=""font-size:60px;"">+</div>","null","html-keyboard-response","85","130657","0.0-3.0-0.41","","fixation","","",""
"1352","Set1/058a.jpg","78","image-keyboard-response","86","132010","0.0-3.0-1.41","","","Repeat","n","true"
"null","<div style=""font-size:60px;"">+</div>","null","html-keyboard-response","87","132512","0.0-3.0-0.42","","fixation","","",""
"1156","Set1/140b.jpg","78","image-keyboard-response","88","133670","0.0-3.0-1.42","","","Update","n","true"
"null","<div style=""font-size:60px;"">+</div>","null","html-keyboard-response","89","134171","0.0-3.0-0.43","","fixation","","",""
"1022","Set1/037a.jpg","79","image-keyboard-response","90","135194","0.0-3.0-1.43","","","Repeat","o","true"
"null","<div style=""font-size:60px;"">+</div>","null","html-keyboard-response","91","135696","0.0-3.0-0.44","","fixation","","",""
"1080","Set1/153b.jpg","79","image-keyboard-response","92","136778","0.0-3.0-1.44","","","Update","o","true"
"null","<div style=""font-size:60px;"">+</div>","null","html-keyboard-response","93","137280","0.0-3.0-0.45","","fixation","","",""
"1400","Set1/168a.jpg","78","image-keyboard-response","94","138682","0.0-3.0-1.45","","","Set_2_Only","n","true"
"null","<div style=""font-size:60px;"">+</div>","null","html-keyboard-response","95","139184","0.0-3.0-0.46","","fixation","","",""
"1745","Set1/091a.jpg","79","image-keyboard-response","96","140930","0.0-3.0-1.46","","","Repeat","n","false"
"null","<div style=""font-size:60px;"">+</div>","null","html-keyboard-response","97","141431","0.0-3.0-0.47","","fixation","","",""
"913","Set1/119b.jpg","78","image-keyboard-response","98","142346","0.0-3.0-1.47","","","Update","o","false"
"null","<div style=""font-size:60px;"">+</div>","null","html-keyboard-response","99","142848","0.0-3.0-0.48","","fixation","","",""
"2712","Set1/168a.jpg","79","image-keyboard-response","100","145562","0.0-3.0-1.48","","","Set_2_Only","o","true"
"null","<div style=""font-size:60px;"">+</div>","null","html-keyboard-response","101","146063","0.0-3.0-0.49","","fixation","","",""
"922","Set1/038a.jpg","79","image-keyboard-response","102","146986","0.0-3.0-1.49","","","Repeat","o","true"
"null","<div style=""font-size:60px;"">+</div>","null","html-keyboard-response","103","147487","0.0-3.0-0.50","","fixation","","",""
"1656","Set1/154b.jpg","78","image-keyboard-response","104","149146","0.0-3.0-1.50","","","Update","n","true"
"null","<div style=""font-size:60px;"">+</div>","null","html-keyboard-response","105","149647","0.0-3.0-0.51","","fixation","","",""
"1880","Set1/067a.jpg","78","image-keyboard-response","106","151529","0.0-3.0-1.51","","","Repeat","n","true"
"null","<div style=""font-size:60px;"">+</div>","null","html-keyboard-response","107","152031","0.0-3.0-0.52","","fixation","","",""
"1296","Set1/080a.jpg","79","image-keyboard-response","108","153329","0.0-3.0-1.52","","","Repeat","o","true"
"null","<div style=""font-size:60px;"">+</div>","null","html-keyboard-response","109","153831","0.0-3.0-0.53","","fixation","","",""
"1681","Set1/154b.jpg","79","image-keyboard-response","110","155513","0.0-3.0-1.53","","","Update","o","true"
"null","<div style=""font-size:60px;"">+</div>","null","html-keyboard-response","111","156015","0.0-3.0-0.54","","fixation","","",""
"1161","Set1/087a.jpg","78","image-keyboard-response","112","157177","0.0-3.0-1.54","","","Repeat","n","true"
"null","<div style=""font-size:60px;"">+</div>","null","html-keyboard-response","113","157679","0.0-3.0-0.55","","fixation","","",""
"1753","Set1/149b.jpg","79","image-keyboard-response","114","159433","0.0-3.0-1.55","","","Update","n","false"
"null","<div style=""font-size:60px;"">+</div>","null","html-keyboard-response","115","159934","0.0-3.0-0.56","","fixation","","",""
"1146","Set1/173a.jpg","78","image-keyboard-response","116","161081","0.0-3.0-1.56","","","Set_2_Only","n","true"
"null","<div style=""font-size:60px;"">+</div>","null","html-keyboard-response","117","161583","0.0-3.0-0.57","","fixation","","",""
"1057","Set1/040a.jpg","79","image-keyboard-response","118","162641","0.0-3.0-1.57","","","Repeat","o","true"
"null","<div style=""font-size:60px;"">+</div>","null","html-keyboard-response","119","163143","0.0-3.0-0.58","","fixation","","",""
"801","Set1/058a.jpg","79","image-keyboard-response","120","163945","0.0-3.0-1.58","","","Repeat","o","true"
"null","<div style=""font-size:60px;"">+</div>","null","html-keyboard-response","121","164869","0.0-3.0-0.59","","fixation","","",""
"1339","Set1/173a.jpg","79","image-keyboard-response","122","166209","0.0-3.0-1.59","","","Set_2_Only","o","true"
"null","<div style=""font-size:60px;"">+</div>","null","html-keyboard-response","123","166711","0.0-3.0-0.60","","fixation","","",""
"1057","Set1/140b.jpg","79","image-keyboard-response","124","167769","0.0-3.0-1.60","","","Update","o","true"
"null","<div style=""font-size:60px;"">+</div>","null","html-keyboard-response","125","168270","0.0-3.0-0.61","","fixation","","",""
"1713","Set1/187a.jpg","78","image-keyboard-response","126","169985","0.0-3.0-1.61","","","Set_2_Only","n","true"
"null","<div style=""font-size:60px;"">+</div>","null","html-keyboard-response","127","170487","0.0-3.0-0.62","","fixation","","",""
"1601","Set1/067a.jpg","79","image-keyboard-response","128","172089","0.0-3.0-1.62","","","Repeat","o","true"
"null","<div style=""font-size:60px;"">+</div>","null","html-keyboard-response","129","172591","0.0-3.0-0.63","","fixation","","",""
"856","Set1/126b.jpg","79","image-keyboard-response","130","173448","0.0-3.0-1.63","","","Update","o","true"
"null","<div style=""font-size:60px;"">+</div>","null","html-keyboard-response","131","173950","0.0-3.0-0.64","","fixation","","",""
"1040","Set1/188a.jpg","78","image-keyboard-response","132","174992","0.0-3.0-1.64","","","Set_2_Only","n","true"
"null","<div style=""font-size:60px;"">+</div>","null","html-keyboard-response","133","175493","0.0-3.0-0.65","","fixation","","",""
"1258","Set1/145b.jpg","79","image-keyboard-response","134","176753","0.0-3.0-1.65","","","Update","o","true"
"null","<div style=""font-size:60px;"">+</div>","null","html-keyboard-response","135","177254","0.0-3.0-0.66","","fixation","","",""
"841","Set1/075a.jpg","79","image-keyboard-response","136","178096","0.0-3.0-1.66","","","Repeat","o","true"
"null","<div style=""font-size:60px;"">+</div>","null","html-keyboard-response","137","178598","0.0-3.0-0.67","","fixation","","",""
"1784","Set1/059a.jpg","78","image-keyboard-response","138","180384","0.0-3.0-1.67","","","Repeat","n","true"
"null","<div style=""font-size:60px;"">+</div>","null","html-keyboard-response","139","180886","0.0-3.0-0.68","","fixation","","",""
"1010","Set1/149b.jpg","79","image-keyboard-response","140","181896","0.0-3.0-1.68","","","Update","o","true"
"null","<div style=""font-size:60px;"">+</div>","null","html-keyboard-response","141","182397","0.0-3.0-0.69","","fixation","","",""
"1002","Set1/087a.jpg","79","image-keyboard-response","142","183400","0.0-3.0-1.69","","","Repeat","o","true"
"null","<div style=""font-size:60px;"">+</div>","null","html-keyboard-response","143","183901","0.0-3.0-0.70","","fixation","","",""
"1034","Set1/187a.jpg","79","image-keyboard-response","144","184936","0.0-3.0-1.70","","","Set_2_Only","o","true"
"null","<div style=""font-size:60px;"">+</div>","null","html-keyboard-response","145","185438","0.0-3.0-0.71","","fixation","","",""
"1001","Set1/059a.jpg","79","image-keyboard-response","146","186440","0.0-3.0-1.71","","","Repeat","o","true"
"null","<div style=""font-size:60px;"">+</div>","null","html-keyboard-response","147","186942","0.0-3.0-0.72","","fixation","","",""
"857","Set1/157b.jpg","79","image-keyboard-response","148","187800","0.0-3.0-1.72","","","Update","o","true"
"null","<div style=""font-size:60px;"">+</div>","null","html-keyboard-response","149","188302","0.0-3.0-0.73","","fixation","","",""
"1273","Set1/123b.jpg","79","image-keyboard-response","150","189576","0.0-3.0-1.73","","","Update","o","true"
"null","<div style=""font-size:60px;"">+</div>","null","html-keyboard-response","151","190077","0.0-3.0-0.74","","fixation","","",""
"993","Set1/175a.jpg","79","image-keyboard-response","152","191072","0.0-3.0-1.74","","","Set_2_Only","o","true"
"null","<div style=""font-size:60px;"">+</div>","null","html-keyboard-response","153","191573","0.0-3.0-0.75","","fixation","","",""
"1265","Set1/188a.jpg","79","image-keyboard-response","154","192838","0.0-3.0-1.75","","","Set_2_Only","o","true"
"null","<div style=""font-size:60px;"">+</div>","null","html-keyboard-response","155","193341","0.0-3.0-0.76","","fixation","","",""
"1065","Set1/039a.jpg","79","image-keyboard-response","156","194407","0.0-3.0-1.76","","","Repeat","o","true"
"null","<div style=""font-size:60px;"">+</div>","null","html-keyboard-response","157","195007","0.0-3.0-0.77","","fixation","","",""
"1199","Set1/141b.jpg","79","image-keyboard-response","158","196208","0.0-3.0-1.77","","","Update","o","true"
"null","<div style=""font-size:60px;"">+</div>","null","html-keyboard-response","159","196712","0.0-3.0-0.78","","fixation","","",""
"910","Set1/091a.jpg","79","image-keyboard-response","160","197624","0.0-3.0-1.78","","","Repeat","o","true"
"null","<div style=""font-size:60px;"">+</div>","null","html-keyboard-response","161","198125","0.0-3.0-0.79","","fixation","","",""
"905","Set1/138b.jpg","79","image-keyboard-response","162","199031","0.0-3.0-1.79","","","Update","o","true"
"null","<div style=""font-size:60px;"">+</div>","null","html-keyboard-response","163","199533","0.0-3.0-0.80","","fixation","","",""
"1624","Set1/055a.jpg","78","image-keyboard-response","164","201159","0.0-3.0-1.80","","","Repeat","n","true"
"null","<div style=""font-size:60px;"">+</div>","null","html-keyboard-response","165","201660","0.0-3.0-0.81","","fixation","","",""
"1754","Set1/128b.jpg","78","image-keyboard-response","166","203415","0.0-3.0-1.81","","","Update","n","true"
"null","<div style=""font-size:60px;"">+</div>","null","html-keyboard-response","167","203916","0.0-3.0-0.82","","fixation","","",""
"953","Set1/046a.jpg","78","image-keyboard-response","168","204871","0.0-3.0-1.82","","","Repeat","n","true"
"null","<div style=""font-size:60px;"">+</div>","null","html-keyboard-response","169","205373","0.0-3.0-0.83","","fixation","","",""
"1576","Set1/139b.jpg","78","image-keyboard-response","170","206951","0.0-3.0-1.83","","","Update","n","true"
"null","<div style=""font-size:60px;"">+</div>","null","html-keyboard-response","171","207453","0.0-3.0-0.84","","fixation","","",""
"1369","Set1/084a.jpg","79","image-keyboard-response","172","208823","0.0-3.0-1.84","","","Repeat","n","false"
"null","<div style=""font-size:60px;"">+</div>","null","html-keyboard-response","173","209325","0.0-3.0-0.85","","fixation","","",""
"2184","Set1/147b.jpg","79","image-keyboard-response","174","211511","0.0-3.0-1.85","","","Update","n","false"
"null","<div style=""font-size:60px;"">+</div>","null","html-keyboard-response","175","212013","0.0-3.0-0.86","","fixation","","",""
"1232","Set1/176a.jpg","78","image-keyboard-response","176","213247","0.0-3.0-1.86","","","Set_2_Only","n","true"
"null","<div style=""font-size:60px;"">+</div>","null","html-keyboard-response","177","213748","0.0-3.0-0.87","","fixation","","",""
"818","Set1/042a.jpg","78","image-keyboard-response","178","214567","0.0-3.0-1.87","","","Repeat","n","true"
"null","<div style=""font-size:60px;"">+</div>","null","html-keyboard-response","179","215069","0.0-3.0-0.88","","fixation","","",""
"2056","Set1/114b.jpg","79","image-keyboard-response","180","217126","0.0-3.0-1.88","","","Update","n","false"
"null","<div style=""font-size:60px;"">+</div>","null","html-keyboard-response","181","217628","0.0-3.0-0.89","","fixation","","",""
"1576","Set1/064a.jpg","78","image-keyboard-response","182","219207","0.0-3.0-1.89","","","Repeat","n","true"
"null","<div style=""font-size:60px;"">+</div>","null","html-keyboard-response","183","219708","0.0-3.0-0.90","","fixation","","",""
"2064","Set1/036a.jpg","79","image-keyboard-response","184","221775","0.0-3.0-1.90","","","Repeat","n","false"
"null","<div style=""font-size:60px;"">+</div>","null","html-keyboard-response","185","222277","0.0-3.0-0.91","","fixation","","",""
"1056","Set1/139b.jpg","79","image-keyboard-response","186","223335","0.0-3.0-1.91","","","Update","o","true"
"null","<div style=""font-size:60px;"">+</div>","null","html-keyboard-response","187","223836","0.0-3.0-0.92","","fixation","","",""
"696","Set1/128b.jpg","79","image-keyboard-response","188","224534","0.0-3.0-1.92","","","Update","o","true"
"null","<div style=""font-size:60px;"">+</div>","null","html-keyboard-response","189","225035","0.0-3.0-0.93","","fixation","","",""
"null","Set1/044a.jpg","null","image-keyboard-response","190","235037","0.0-3.0-1.93","","","Repeat","n","false"
"null","<div style=""font-size:60px;"">+</div>","null","html-keyboard-response","191","235539","0.0-3.0-0.94","","fixation","","",""
"1793","Set1/162a.jpg","78","image-keyboard-response","192","237334","0.0-3.0-1.94","","","Set_2_Only","n","true"
"null","<div style=""font-size:60px;"">+</div>","null","html-keyboard-response","193","237836","0.0-3.0-0.95","","fixation","","",""
"1441","Set1/074a.jpg","78","image-keyboard-response","194","239278","0.0-3.0-1.95","","","Repeat","n","true"
"null","<div style=""font-size:60px;"">+</div>","null","html-keyboard-response","195","239779","0.0-3.0-0.96","","fixation","","",""
"857","Set1/114b.jpg","79","image-keyboard-response","196","240638","0.0-3.0-1.96","","","Update","o","true"
"null","<div style=""font-size:60px;"">+</div>","null","html-keyboard-response","197","241139","0.0-3.0-0.97","","fixation","","",""
"1185","Set1/159b.jpg","78","image-keyboard-response","198","242326","0.0-3.0-1.97","","","Update","n","true"
"null","<div style=""font-size:60px;"">+</div>","null","html-keyboard-response","199","242827","0.0-3.0-0.98","","fixation","","",""
"1041","Set1/143b.jpg","78","image-keyboard-response","200","243869","0.0-3.0-1.98","","","Update","n","true"
"null","<div style=""font-size:60px;"">+</div>","null","html-keyboard-response","201","244370","0.0-3.0-0.99","","fixation","","",""
"1486","Set1/103b.jpg","78","image-keyboard-response","202","245858","0.0-3.0-1.99","","","Update","n","true"
"null","<div style=""font-size:60px;"">+</div>","null","html-keyboard-response","203","246360","0.0-3.0-0.100","","fixation","","",""
"1957","Set1/047a.jpg","78","image-keyboard-response","204","248318","0.0-3.0-1.100","","","Repeat","n","true"
"null","<div style=""font-size:60px;"">+</div>","null","html-keyboard-response","205","248819","0.0-3.0-0.101","","fixation","","",""
"1081","Set1/064a.jpg","79","image-keyboard-response","206","249901","0.0-3.0-1.101","","","Repeat","o","true"
"null","<div style=""font-size:60px;"">+</div>","null","html-keyboard-response","207","250403","0.0-3.0-0.102","","fixation","","",""
"1057","Set1/191a.jpg","78","image-keyboard-response","208","251461","0.0-3.0-1.102","","","Set_2_Only","n","true"
"null","<div style=""font-size:60px;"">+</div>","null","html-keyboard-response","209","251964","0.0-3.0-0.103","","fixation","","",""
"1527","Set1/071a.jpg","78","image-keyboard-response","210","253493","0.0-3.0-1.103","","","Repeat","n","true"
"null","<div style=""font-size:60px;"">+</div>","null","html-keyboard-response","211","253995","0.0-3.0-0.104","","fixation","","",""
"1097","Set1/096a.jpg","78","image-keyboard-response","212","255093","0.0-3.0-1.104","","","Repeat","n","true"
"null","<div style=""font-size:60px;"">+</div>","null","html-keyboard-response","213","255594","0.0-3.0-0.105","","fixation","","",""
"1081","Set1/098b.jpg","78","image-keyboard-response","214","256677","0.0-3.0-1.105","","","Update","n","true"
"null","<div style=""font-size:60px;"">+</div>","null","html-keyboard-response","215","257179","0.0-3.0-0.106","","fixation","","",""
"1769","Set1/106b.jpg","79","image-keyboard-response","216","258949","0.0-3.0-1.106","","","Update","n","false"
"null","<div style=""font-size:60px;"">+</div>","null","html-keyboard-response","217","259451","0.0-3.0-0.107","","fixation","","",""
"1057","Set1/159b.jpg","79","image-keyboard-response","218","260509","0.0-3.0-1.107","","","Update","o","true"
"null","<div style=""font-size:60px;"">+</div>","null","html-keyboard-response","219","261011","0.0-3.0-0.108","","fixation","","",""
"913","Set1/071a.jpg","79","image-keyboard-response","220","261925","0.0-3.0-1.108","","","Repeat","o","true"
"null","<div style=""font-size:60px;"">+</div>","null","html-keyboard-response","221","262427","0.0-3.0-0.109","","fixation","","",""
"744","Set1/047a.jpg","79","image-keyboard-response","222","263173","0.0-3.0-1.109","","","Repeat","o","true"
"null","<div style=""font-size:60px;"">+</div>","null","html-keyboard-response","223","263674","0.0-3.0-0.110","","fixation","","",""
"1129","Set1/144b.jpg","78","image-keyboard-response","224","264805","0.0-3.0-1.110","","","Update","n","true"
"null","<div style=""font-size:60px;"">+</div>","null","html-keyboard-response","225","265306","0.0-3.0-0.111","","fixation","","",""
"1249","Set1/069a.jpg","78","image-keyboard-response","226","266557","0.0-3.0-1.111","","","Repeat","n","true"
"null","<div style=""font-size:60px;"">+</div>","null","html-keyboard-response","227","267057","0.0-3.0-0.112","","fixation","","",""
"2209","Set1/034a.jpg","79","image-keyboard-response","228","269268","0.0-3.0-1.112","","","Repeat","n","false"
"null","<div style=""font-size:60px;"">+</div>","null","html-keyboard-response","229","269771","0.0-3.0-0.113","","fixation","","",""
"1416","Set1/050a.jpg","79","image-keyboard-response","230","271189","0.0-3.0-1.113","","","Repeat","n","false"
"null","<div style=""font-size:60px;"">+</div>","null","html-keyboard-response","231","271691","0.0-3.0-0.114","","fixation","","",""
"984","Set1/068a.jpg","78","image-keyboard-response","232","272676","0.0-3.0-1.114","","","Repeat","n","true"
"null","<div style=""font-size:60px;"">+</div>","null","html-keyboard-response","233","273178","0.0-3.0-0.115","","fixation","","",""
"1888","Set1/130b.jpg","78","image-keyboard-response","234","275068","0.0-3.0-1.115","","","Update","n","true"
"null","<div style=""font-size:60px;"">+</div>","null","html-keyboard-response","235","275569","0.0-3.0-0.116","","fixation","","",""
"863","Set1/046a.jpg","79","image-keyboard-response","236","276436","0.0-3.0-1.116","","","Repeat","o","true"
"null","<div style=""font-size:60px;"">+</div>","null","html-keyboard-response","237","276939","0.0-3.0-0.117","","fixation","","",""
"1452","Set1/073a.jpg","78","image-keyboard-response","238","278392","0.0-3.0-1.117","","","Repeat","n","true"
"null","<div style=""font-size:60px;"">+</div>","null","html-keyboard-response","239","278893","0.0-3.0-0.118","","fixation","","",""
"1525","Set1/078a.jpg","78","image-keyboard-response","240","280420","0.0-3.0-1.118","","","Repeat","n","true"
"null","<div style=""font-size:60px;"">+</div>","null","html-keyboard-response","241","280921","0.0-3.0-0.119","","fixation","","",""
"842","Set1/147b.jpg","79","image-keyboard-response","242","281764","0.0-3.0-1.119","","","Update","o","true"
"null","<div style=""font-size:60px;"">+</div>","null","html-keyboard-response","243","282266","0.0-3.0-0.120","","fixation","","",""
"1137","Set1/066a.jpg","78","image-keyboard-response","244","283404","0.0-3.0-1.120","","","Repeat","n","true"
"null","<div style=""font-size:60px;"">+</div>","null","html-keyboard-response","245","283905","0.0-3.0-0.121","","fixation","","",""
"954","Set1/106b.jpg","79","image-keyboard-response","246","284860","0.0-3.0-1.121","","","Update","o","true"
"null","<div style=""font-size:60px;"">+</div>","null","html-keyboard-response","247","285361","0.0-3.0-0.122","","fixation","","",""
"1218","Set1/112b.jpg","78","image-keyboard-response","248","286580","0.0-3.0-1.122","","","Update","n","true"
"null","<div style=""font-size:60px;"">+</div>","null","html-keyboard-response","249","287082","0.0-3.0-0.123","","fixation","","",""
"1001","Set1/185a.jpg","78","image-keyboard-response","250","288084","0.0-3.0-1.123","","","Set_2_Only","n","true"
"null","<div style=""font-size:60px;"">+</div>","null","html-keyboard-response","251","288588","0.0-3.0-0.124","","fixation","","",""
"798","Set1/036a.jpg","79","image-keyboard-response","252","289388","0.0-3.0-1.124","","","Repeat","o","true"
"null","<div style=""font-size:60px;"">+</div>","null","html-keyboard-response","253","289890","0.0-3.0-0.125","","fixation","","",""
"833","Set1/098b.jpg","79","image-keyboard-response","254","290724","0.0-3.0-1.125","","","Update","o","true"
"null","<div style=""font-size:60px;"">+</div>","null","html-keyboard-response","255","291225","0.0-3.0-0.126","","fixation","","",""
"1001","Set1/096a.jpg","79","image-keyboard-response","256","292227","0.0-3.0-1.126","","","Repeat","o","true"
"null","<div style=""font-size:60px;"">+</div>","null","html-keyboard-response","257","292729","0.0-3.0-0.127","","fixation","","",""
"1241","Set1/185a.jpg","78","image-keyboard-response","258","293972","0.0-3.0-1.127","","","Set_2_Only","o","false"
"null","<div style=""font-size:60px;"">+</div>","null","html-keyboard-response","259","294474","0.0-3.0-0.128","","fixation","","",""
"1024","Set1/066a.jpg","79","image-keyboard-response","260","295499","0.0-3.0-1.128","","","Repeat","o","true"
"null","<div style=""font-size:60px;"">+</div>","null","html-keyboard-response","261","296001","0.0-3.0-0.129","","fixation","","",""
"953","Set1/144b.jpg","79","image-keyboard-response","262","296955","0.0-3.0-1.129","","","Update","o","true"
"null","<div style=""font-size:60px;"">+</div>","null","html-keyboard-response","263","297456","0.0-3.0-0.130","","fixation","","",""
"1370","Set1/112b.jpg","79","image-keyboard-response","264","298827","0.0-3.0-1.130","","","Update","o","true"
"null","<div style=""font-size:60px;"">+</div>","null","html-keyboard-response","265","299329","0.0-3.0-0.131","","fixation","","",""
"920","Set1/162a.jpg","79","image-keyboard-response","266","300251","0.0-3.0-1.131","","","Set_2_Only","o","true"
"null","<div style=""font-size:60px;"">+</div>","null","html-keyboard-response","267","300753","0.0-3.0-0.132","","fixation","","",""
"728","Set1/176a.jpg","79","image-keyboard-response","268","301483","0.0-3.0-1.132","","","Set_2_Only","o","true"
"null","<div style=""font-size:60px;"">+</div>","null","html-keyboard-response","269","301985","0.0-3.0-0.133","","fixation","","",""
"776","Set1/050a.jpg","79","image-keyboard-response","270","302763","0.0-3.0-1.133","","","Repeat","o","true"
"null","<div style=""font-size:60px;"">+</div>","null","html-keyboard-response","271","303264","0.0-3.0-0.134","","fixation","","",""
"850","Set1/078a.jpg","79","image-keyboard-response","272","304115","0.0-3.0-1.134","","","Repeat","o","true"
"null","<div style=""font-size:60px;"">+</div>","null","html-keyboard-response","273","304617","0.0-3.0-0.135","","fixation","","",""
"1185","Set1/150b.jpg","78","image-keyboard-response","274","305803","0.0-3.0-1.135","","","Update","n","true"
"null","<div style=""font-size:60px;"">+</div>","null","html-keyboard-response","275","306304","0.0-3.0-0.136","","fixation","","",""
"920","Set1/043a.jpg","78","image-keyboard-response","276","307227","0.0-3.0-1.136","","","Repeat","n","true"
"null","<div style=""font-size:60px;"">+</div>","null","html-keyboard-response","277","307729","0.0-3.0-0.137","","fixation","","",""
"1481","Set1/100b.jpg","78","image-keyboard-response","278","309211","0.0-3.0-1.137","","","Update","n","true"
"null","<div style=""font-size:60px;"">+</div>","null","html-keyboard-response","279","309713","0.0-3.0-0.138","","fixation","","",""
"825","Set1/042a.jpg","78","image-keyboard-response","280","310539","0.0-3.0-1.138","","","Repeat","o","false"
"null","<div style=""font-size:60px;"">+</div>","null","html-keyboard-response","281","311041","0.0-3.0-0.139","","fixation","","",""
"1464","Set1/131b.jpg","78","image-keyboard-response","282","312507","0.0-3.0-1.139","","","Update","n","true"
"null","<div style=""font-size:60px;"">+</div>","null","html-keyboard-response","283","313009","0.0-3.0-0.140","","fixation","","",""
"896","Set1/073a.jpg","79","image-keyboard-response","284","313907","0.0-3.0-1.140","","","Repeat","o","true"
"null","<div style=""font-size:60px;"">+</div>","null","html-keyboard-response","285","314409","0.0-3.0-0.141","","fixation","","",""
"840","Set1/074a.jpg","79","image-keyboard-response","286","315251","0.0-3.0-1.141","","","Repeat","o","true"
"null","<div style=""font-size:60px;"">+</div>","null","html-keyboard-response","287","315753","0.0-3.0-0.142","","fixation","","",""
"992","Set1/034a.jpg","79","image-keyboard-response","288","316747","0.0-3.0-1.142","","","Repeat","o","true"
"null","<div style=""font-size:60px;"">+</div>","null","html-keyboard-response","289","317249","0.0-3.0-0.143","","fixation","","",""
"880","Set1/068a.jpg","79","image-keyboard-response","290","318131","0.0-3.0-1.143","","","Repeat","o","true"
"null","<div style=""font-size:60px;"">+</div>","null","html-keyboard-response","291","318633","0.0-3.0-0.144","","fixation","","",""
"1016","Set1/191a.jpg","79","image-keyboard-response","292","319651","0.0-3.0-1.144","","","Set_2_Only","o","true"
"null","<div style=""font-size:60px;"">+</div>","null","html-keyboard-response","293","320152","0.0-3.0-0.145","","fixation","","",""
"825","Set1/131b.jpg","79","image-keyboard-response","294","320978","0.0-3.0-1.145","","","Update","o","true"
"null","<div style=""font-size:60px;"">+</div>","null","html-keyboard-response","295","321480","0.0-3.0-0.146","","fixation","","",""
"785","Set1/043a.jpg","79","image-keyboard-response","296","322266","0.0-3.0-1.146","","","Repeat","o","true"
"null","<div style=""font-size:60px;"">+</div>","null","html-keyboard-response","297","322768","0.0-3.0-0.147","","fixation","","",""
"961","Set1/100b.jpg","79","image-keyboard-response","298","323730","0.0-3.0-1.147","","","Update","o","true"
"null","<div style=""font-size:60px;"">+</div>","null","html-keyboard-response","299","324232","0.0-3.0-0.148","","fixation","","",""
"1099","Set1/055a.jpg","79","image-keyboard-response","300","325333","0.0-3.0-1.148","","","Repeat","o","true"
"null","<div style=""font-size:60px;"">+</div>","null","html-keyboard-response","301","325878","0.0-3.0-0.149","","fixation","","",""
"1107","Set1/041a.jpg","78","image-keyboard-response","302","326986","0.0-3.0-1.149","","","Repeat","n","true"
"null","<div style=""font-size:60px;"">+</div>","null","html-keyboard-response","303","327488","0.0-3.0-0.150","","fixation","","",""
"1600","Set1/069a.jpg","79","image-keyboard-response","304","329090","0.0-3.0-1.150","","","Repeat","o","true"
"null","<div style=""font-size:60px;"">+</div>","null","html-keyboard-response","305","329592","0.0-3.0-0.151","","fixation","","",""
"2152","Set1/061a.jpg","78","image-keyboard-response","306","331746","0.0-3.0-1.151","","","Repeat","n","true"
"null","<div style=""font-size:60px;"">+</div>","null","html-keyboard-response","307","332251","0.0-3.0-0.152","","fixation","","",""
"998","Set1/103b.jpg","79","image-keyboard-response","308","333250","0.0-3.0-1.152","","","Update","o","true"
"null","<div style=""font-size:60px;"">+</div>","null","html-keyboard-response","309","333751","0.0-3.0-0.153","","fixation","","",""
"1424","Set1/044a.jpg","78","image-keyboard-response","310","335178","0.0-3.0-1.153","","","Repeat","o","false"
"null","<div style=""font-size:60px;"">+</div>","null","html-keyboard-response","311","335680","0.0-3.0-0.154","","fixation","","",""
"1345","Set1/150b.jpg","79","image-keyboard-response","312","337026","0.0-3.0-1.154","","","Update","o","true"
"null","<div style=""font-size:60px;"">+</div>","null","html-keyboard-response","313","337528","0.0-3.0-0.155","","fixation","","",""
"784","Set1/084a.jpg","79","image-keyboard-response","314","338314","0.0-3.0-1.155","","","Repeat","o","true"
"null","<div style=""font-size:60px;"">+</div>","null","html-keyboard-response","315","338816","0.0-3.0-0.156","","fixation","","",""
"712","Set1/130b.jpg","79","image-keyboard-response","316","339530","0.0-3.0-1.156","","","Update","o","true"
"null","<div style=""font-size:60px;"">+</div>","null","html-keyboard-response","317","340032","0.0-3.0-0.157","","fixation","","",""
"1097","Set1/143b.jpg","79","image-keyboard-response","318","341130","0.0-3.0-1.157","","","Update","o","true"
"null","<div style=""font-size:60px;"">+</div>","null","html-keyboard-response","319","341636","0.0-3.0-0.158","","fixation","","",""
"964","Set1/061a.jpg","79","image-keyboard-response","320","342602","0.0-3.0-1.158","","","Repeat","o","true"
"null","<div style=""font-size:60px;"">+</div>","null","html-keyboard-response","321","343104","0.0-3.0-0.159","","fixation","","",""
"792","Set1/041a.jpg","79","image-keyboard-response","322","343897","0.0-3.0-1.159","","","Repeat","o","true"
"null","<div style=""font-size:60px;"">+</div>","null","html-keyboard-response","323","344399","0.0-3.0-0.160","","fixation","","",""
"1152","Set1/113b.jpg","78","image-keyboard-response","324","345554","0.0-3.0-1.160","","","Update","n","true"
"null","<div style=""font-size:60px;"">+</div>","null","html-keyboard-response","325","346056","0.0-3.0-0.161","","fixation","","",""
"1266","Set1/105b.jpg","78","image-keyboard-response","326","347327","0.0-3.0-1.161","","","Update","n","true"
"null","<div style=""font-size:60px;"">+</div>","null","html-keyboard-response","327","347828","0.0-3.0-0.162","","fixation","","",""
"1131","Set1/056a.jpg","78","image-keyboard-response","328","348961","0.0-3.0-1.162","","","Repeat","n","true"
"null","<div style=""font-size:60px;"">+</div>","null","html-keyboard-response","329","349463","0.0-3.0-0.163","","fixation","","",""
"976","Set1/070a.jpg","79","image-keyboard-response","330","350445","0.0-3.0-1.163","","","Repeat","n","false"
"null","<div style=""font-size:60px;"">+</div>","null","html-keyboard-response","331","350947","0.0-3.0-0.164","","fixation","","",""
"1348","Set1/089a.jpg","79","image-keyboard-response","332","352297","0.0-3.0-1.164","","","Repeat","n","false"
"null","<div style=""font-size:60px;"">+</div>","null","html-keyboard-response","333","352799","0.0-3.0-0.165","","fixation","","",""
"1208","Set1/165a.jpg","78","image-keyboard-response","334","354009","0.0-3.0-1.165","","","Set_2_Only","n","true"
"null","<div style=""font-size:60px;"">+</div>","null","html-keyboard-response","335","354511","0.0-3.0-0.166","","fixation","","",""
"1641","Set1/065a.jpg","79","image-keyboard-response","336","356153","0.0-3.0-1.166","","","Repeat","n","false"
"null","<div style=""font-size:60px;"">+</div>","null","html-keyboard-response","337","356655","0.0-3.0-0.167","","fixation","","",""
"776","Set1/104b.jpg","79","image-keyboard-response","338","357433","0.0-3.0-1.167","","","Update","n","false"
"null","<div style=""font-size:60px;"">+</div>","null","html-keyboard-response","339","357935","0.0-3.0-0.168","","fixation","","",""
"849","Set1/065a.jpg","79","image-keyboard-response","340","358785","0.0-3.0-1.168","","","Repeat","o","true"
"null","<div style=""font-size:60px;"">+</div>","null","html-keyboard-response","341","359287","0.0-3.0-0.169","","fixation","","",""
"1945","Set1/082a.jpg","79","image-keyboard-response","342","361233","0.0-3.0-1.169","","","Repeat","n","false"
"null","<div style=""font-size:60px;"">+</div>","null","html-keyboard-response","343","361735","0.0-3.0-0.170","","fixation","","",""
"1064","Set1/134b.jpg","78","image-keyboard-response","344","362801","0.0-3.0-1.170","","","Update","n","true"
"null","<div style=""font-size:60px;"">+</div>","null","html-keyboard-response","345","363303","0.0-3.0-0.171","","fixation","","",""
"961","Set1/158b.jpg","78","image-keyboard-response","346","364265","0.0-3.0-1.171","","","Update","n","true"
"null","<div style=""font-size:60px;"">+</div>","null","html-keyboard-response","347","364766","0.0-3.0-0.172","","fixation","","",""
"825","Set1/057a.jpg","78","image-keyboard-response","348","365593","0.0-3.0-1.172","","","Repeat","n","true"
"null","<div style=""font-size:60px;"">+</div>","null","html-keyboard-response","349","366095","0.0-3.0-0.173","","fixation","","",""
"960","Set1/105b.jpg","79","image-keyboard-response","350","367056","0.0-3.0-1.173","","","Update","o","true"
"null","<div style=""font-size:60px;"">+</div>","null","html-keyboard-response","351","367558","0.0-3.0-0.174","","fixation","","",""
"1088","Set1/161a.jpg","78","image-keyboard-response","352","368649","0.0-3.0-1.174","","","Set_2_Only","n","true"
"null","<div style=""font-size:60px;"">+</div>","null","html-keyboard-response","353","369151","0.0-3.0-0.175","","fixation","","",""
"992","Set1/101b.jpg","78","image-keyboard-response","354","370144","0.0-3.0-1.175","","","Update","n","true"
"null","<div style=""font-size:60px;"">+</div>","null","html-keyboard-response","355","370647","0.0-3.0-0.176","","fixation","","",""
"856","Set1/089a.jpg","79","image-keyboard-response","356","371505","0.0-3.0-1.176","","","Repeat","o","true"
"null","<div style=""font-size:60px;"">+</div>","null","html-keyboard-response","357","372006","0.0-3.0-0.177","","fixation","","",""
"1320","Set1/101b.jpg","79","image-keyboard-response","358","373329","0.0-3.0-1.177","","","Update","o","true"
"null","<div style=""font-size:60px;"">+</div>","null","html-keyboard-response","359","373831","0.0-3.0-0.178","","fixation","","",""
"912","Set1/134b.jpg","79","image-keyboard-response","360","374744","0.0-3.0-1.178","","","Update","o","true"
"null","<div style=""font-size:60px;"">+</div>","null","html-keyboard-response","361","375246","0.0-3.0-0.179","","fixation","","",""
"849","Set1/161a.jpg","79","image-keyboard-response","362","376096","0.0-3.0-1.179","","","Set_2_Only","o","true"
"null","<div style=""font-size:60px;"">+</div>","null","html-keyboard-response","363","376598","0.0-3.0-0.180","","fixation","","",""
"864","Set1/116b.jpg","78","image-keyboard-response","364","377464","0.0-3.0-1.180","","","Update","n","true"
"null","<div style=""font-size:60px;"">+</div>","null","html-keyboard-response","365","377966","0.0-3.0-0.181","","fixation","","",""
"1329","Set1/152b.jpg","78","image-keyboard-response","366","379296","0.0-3.0-1.181","","","Update","n","true"
"null","<div style=""font-size:60px;"">+</div>","null","html-keyboard-response","367","379798","0.0-3.0-0.182","","fixation","","",""
"1480","Set1/045a.jpg","78","image-keyboard-response","368","381280","0.0-3.0-1.182","","","Repeat","n","true"
"null","<div style=""font-size:60px;"">+</div>","null","html-keyboard-response","369","381782","0.0-3.0-0.183","","fixation","","",""
"1008","Set1/183a.jpg","78","image-keyboard-response","370","382792","0.0-3.0-1.183","","","Set_2_Only","n","true"
"null","<div style=""font-size:60px;"">+</div>","null","html-keyboard-response","371","383294","0.0-3.0-0.184","","fixation","","",""
"1577","Set1/053a.jpg","78","image-keyboard-response","372","384872","0.0-3.0-1.184","","","Repeat","n","true"
"null","<div style=""font-size:60px;"">+</div>","null","html-keyboard-response","373","385373","0.0-3.0-0.185","","fixation","","",""
"818","Set1/182a.jpg","78","image-keyboard-response","374","386192","0.0-3.0-1.185","","","Set_2_Only","n","true"
"null","<div style=""font-size:60px;"">+</div>","null","html-keyboard-response","375","386694","0.0-3.0-0.186","","fixation","","",""
"1048","Set1/124b.jpg","79","image-keyboard-response","376","387744","0.0-3.0-1.186","","","Update","n","false"
"null","<div style=""font-size:60px;"">+</div>","null","html-keyboard-response","377","388245","0.0-3.0-0.187","","fixation","","",""
"969","Set1/155b.jpg","78","image-keyboard-response","378","389215","0.0-3.0-1.187","","","Update","n","true"
"null","<div style=""font-size:60px;"">+</div>","null","html-keyboard-response","379","389717","0.0-3.0-0.188","","fixation","","",""
"706","Set1/104b.jpg","79","image-keyboard-response","380","390424","0.0-3.0-1.188","","","Update","o","true"
"null","<div style=""font-size:60px;"">+</div>","null","html-keyboard-response","381","390926","0.0-3.0-0.189","","fixation","","",""
"960","Set1/052a.jpg","78","image-keyboard-response","382","391888","0.0-3.0-1.189","","","Repeat","n","true"
"null","<div style=""font-size:60px;"">+</div>","null","html-keyboard-response","383","392389","0.0-3.0-0.190","","fixation","","",""
"962","Set1/158b.jpg","79","image-keyboard-response","384","393351","0.0-3.0-1.190","","","Update","o","true"
"null","<div style=""font-size:60px;"">+</div>","null","html-keyboard-response","385","393853","0.0-3.0-0.191","","fixation","","",""
"1298","Set1/184a.jpg","78","image-keyboard-response","386","395152","0.0-3.0-1.191","","","Set_2_Only","n","true"
"null","<div style=""font-size:60px;"">+</div>","null","html-keyboard-response","387","395654","0.0-3.0-0.192","","fixation","","",""
"745","Set1/052a.jpg","79","image-keyboard-response","388","396399","0.0-3.0-1.192","","","Repeat","o","true"
"null","<div style=""font-size:60px;"">+</div>","null","html-keyboard-response","389","396900","0.0-3.0-0.193","","fixation","","",""
"1265","Set1/192a.jpg","78","image-keyboard-response","390","398167","0.0-3.0-1.193","","","Set_2_Only","n","true"
"null","<div style=""font-size:60px;"">+</div>","null","html-keyboard-response","391","398669","0.0-3.0-0.194","","fixation","","",""
"777","Set1/155b.jpg","79","image-keyboard-response","392","399447","0.0-3.0-1.194","","","Update","o","true"
"null","<div style=""font-size:60px;"">+</div>","null","html-keyboard-response","393","400024","0.0-3.0-0.195","","fixation","","",""
"766","Set1/070a.jpg","79","image-keyboard-response","394","400791","0.0-3.0-1.195","","","Repeat","o","true"
"null","<div style=""font-size:60px;"">+</div>","null","html-keyboard-response","395","401293","0.0-3.0-0.196","","fixation","","",""
"1153","Set1/048a.jpg","78","image-keyboard-response","396","402447","0.0-3.0-1.196","","","Repeat","n","true"
"null","<div style=""font-size:60px;"">+</div>","null","html-keyboard-response","397","402951","0.0-3.0-0.197","","fixation","","",""
"2014","Set1/122b.jpg","78","image-keyboard-response","398","404967","0.0-3.0-1.197","","","Update","n","true"
"null","<div style=""font-size:60px;"">+</div>","null","html-keyboard-response","399","405469","0.0-3.0-0.198","","fixation","","",""
"1161","Set1/156b.jpg","78","image-keyboard-response","400","406631","0.0-3.0-1.198","","","Update","n","true"
"null","<div style=""font-size:60px;"">+</div>","null","html-keyboard-response","401","407133","0.0-3.0-0.199","","fixation","","",""
"1033","Set1/097b.jpg","78","image-keyboard-response","402","408167","0.0-3.0-1.199","","","Update","n","true"
"null","<div style=""font-size:60px;"">+</div>","null","html-keyboard-response","403","408668","0.0-3.0-0.200","","fixation","","",""
"1225","Set1/118b.jpg","78","image-keyboard-response","404","409895","0.0-3.0-1.200","","","Update","n","true"
"null","<div style=""font-size:60px;"">+</div>","null","html-keyboard-response","405","410397","0.0-3.0-0.201","","fixation","","",""
"1128","Set1/183a.jpg","79","image-keyboard-response","406","411527","0.0-3.0-1.201","","","Set_2_Only","o","true"
"null","<div style=""font-size:60px;"">+</div>","null","html-keyboard-response","407","412029","0.0-3.0-0.202","","fixation","","",""
"928","Set1/107b.jpg","78","image-keyboard-response","408","412959","0.0-3.0-1.202","","","Update","n","true"
"null","<div style=""font-size:60px;"">+</div>","null","html-keyboard-response","409","413460","0.0-3.0-0.203","","fixation","","",""
"1385","Set1/048a.jpg","78","image-keyboard-response","410","414846","0.0-3.0-1.203","","","Repeat","o","false"
"null","<div style=""font-size:60px;"">+</div>","null","html-keyboard-response","411","415348","0.0-3.0-0.204","","fixation","","",""
"2249","Set1/116b.jpg","78","image-keyboard-response","412","417599","0.0-3.0-1.204","","","Update","o","false"
"null","<div style=""font-size:60px;"">+</div>","null","html-keyboard-response","413","418100","0.0-3.0-0.205","","fixation","","",""
"921","Set1/174a.jpg","78","image-keyboard-response","414","419023","0.0-3.0-1.205","","","Set_2_Only","n","true"
"null","<div style=""font-size:60px;"">+</div>","null","html-keyboard-response","415","419525","0.0-3.0-0.206","","fixation","","",""
"1417","Set1/190a.jpg","78","image-keyboard-response","416","420943","0.0-3.0-1.206","","","Set_2_Only","n","true"
"null","<div style=""font-size:60px;"">+</div>","null","html-keyboard-response","417","421445","0.0-3.0-0.207","","fixation","","",""
"1023","Set1/056a.jpg","79","image-keyboard-response","418","422470","0.0-3.0-1.207","","","Repeat","o","true"
"null","<div style=""font-size:60px;"">+</div>","null","html-keyboard-response","419","422972","0.0-3.0-0.208","","fixation","","",""
"1232","Set1/085a.jpg","78","image-keyboard-response","420","424207","0.0-3.0-1.208","","","Repeat","n","true"
"null","<div style=""font-size:60px;"">+</div>","null","html-keyboard-response","421","424709","0.0-3.0-0.209","","fixation","","",""
"1728","Set1/182a.jpg","78","image-keyboard-response","422","426438","0.0-3.0-1.209","","","Set_2_Only","o","false"
"null","<div style=""font-size:60px;"">+</div>","null","html-keyboard-response","423","426940","0.0-3.0-0.210","","fixation","","",""
"1297","Set1/163a.jpg","78","image-keyboard-response","424","428238","0.0-3.0-1.210","","","Set_2_Only","n","true"
"null","<div style=""font-size:60px;"">+</div>","null","html-keyboard-response","425","428754","0.0-3.0-0.211","","fixation","","",""
"1611","Set1/189a.jpg","78","image-keyboard-response","426","430366","0.0-3.0-1.211","","","Set_2_Only","n","true"
"null","<div style=""font-size:60px;"">+</div>","null","html-keyboard-response","427","430868","0.0-3.0-0.212","","fixation","","",""
"761","Set1/097b.jpg","79","image-keyboard-response","428","431630","0.0-3.0-1.212","","","Update","o","true"
"null","<div style=""font-size:60px;"">+</div>","null","html-keyboard-response","429","432131","0.0-3.0-0.213","","fixation","","",""
"762","Set1/113b.jpg","79","image-keyboard-response","430","432894","0.0-3.0-1.213","","","Update","o","true"
"null","<div style=""font-size:60px;"">+</div>","null","html-keyboard-response","431","433396","0.0-3.0-0.214","","fixation","","",""
"704","Set1/174a.jpg","79","image-keyboard-response","432","434102","0.0-3.0-1.214","","","Set_2_Only","o","true"
"null","<div style=""font-size:60px;"">+</div>","null","html-keyboard-response","433","434604","0.0-3.0-0.215","","fixation","","",""
"1985","Set1/115b.jpg","78","image-keyboard-response","434","436590","0.0-3.0-1.215","","","Update","n","true"
"null","<div style=""font-size:60px;"">+</div>","null","html-keyboard-response","435","437091","0.0-3.0-0.216","","fixation","","",""
"1024","Set1/124b.jpg","79","image-keyboard-response","436","438118","0.0-3.0-1.216","","","Update","o","true"
"null","<div style=""font-size:60px;"">+</div>","null","html-keyboard-response","437","438620","0.0-3.0-0.217","","fixation","","",""
"1072","Set1/186a.jpg","78","image-keyboard-response","438","439694","0.0-3.0-1.217","","","Set_2_Only","n","true"
"null","<div style=""font-size:60px;"">+</div>","null","html-keyboard-response","439","440195","0.0-3.0-0.218","","fixation","","",""
"1137","Set1/169a.jpg","78","image-keyboard-response","440","441333","0.0-3.0-1.218","","","Set_2_Only","n","true"
"null","<div style=""font-size:60px;"">+</div>","null","html-keyboard-response","441","441835","0.0-3.0-0.219","","fixation","","",""
"1064","Set1/192a.jpg","79","image-keyboard-response","442","442902","0.0-3.0-1.219","","","Set_2_Only","o","true"
"null","<div style=""font-size:60px;"">+</div>","null","html-keyboard-response","443","443403","0.0-3.0-0.220","","fixation","","",""
"769","Set1/163a.jpg","79","image-keyboard-response","444","444173","0.0-3.0-1.220","","","Set_2_Only","o","true"
"null","<div style=""font-size:60px;"">+</div>","null","html-keyboard-response","445","444675","0.0-3.0-0.221","","fixation","","",""
"641","Set1/118b.jpg","79","image-keyboard-response","446","445317","0.0-3.0-1.221","","","Update","o","true"
"null","<div style=""font-size:60px;"">+</div>","null","html-keyboard-response","447","445819","0.0-3.0-0.222","","fixation","","",""
"768","Set1/107b.jpg","79","image-keyboard-response","448","446590","0.0-3.0-1.222","","","Update","o","true"
"null","<div style=""font-size:60px;"">+</div>","null","html-keyboard-response","449","447091","0.0-3.0-0.223","","fixation","","",""
"984","Set1/062a.jpg","78","image-keyboard-response","450","448077","0.0-3.0-1.223","","","Repeat","n","true"
"null","<div style=""font-size:60px;"">+</div>","null","html-keyboard-response","451","448578","0.0-3.0-0.224","","fixation","","",""
"778","Set1/156b.jpg","78","image-keyboard-response","452","449357","0.0-3.0-1.224","","","Update","o","false"
"null","<div style=""font-size:60px;"">+</div>","null","html-keyboard-response","453","449858","0.0-3.0-0.225","","fixation","","",""
"1642","Set1/186a.jpg","79","image-keyboard-response","454","451501","0.0-3.0-1.225","","","Set_2_Only","o","true"
"null","<div style=""font-size:60px;"">+</div>","null","html-keyboard-response","455","452003","0.0-3.0-0.226","","fixation","","",""
"1288","Set1/045a.jpg","79","image-keyboard-response","456","453293","0.0-3.0-1.226","","","Repeat","o","true"
"null","<div style=""font-size:60px;"">+</div>","null","html-keyboard-response","457","453795","0.0-3.0-0.227","","fixation","","",""
"896","Set1/057a.jpg","79","image-keyboard-response","458","454693","0.0-3.0-1.227","","","Repeat","o","true"
"null","<div style=""font-size:60px;"">+</div>","null","html-keyboard-response","459","455195","0.0-3.0-0.228","","fixation","","",""
"793","Set1/184a.jpg","79","image-keyboard-response","460","455989","0.0-3.0-1.228","","","Set_2_Only","o","true"
"null","<div style=""font-size:60px;"">+</div>","null","html-keyboard-response","461","456491","0.0-3.0-0.229","","fixation","","",""
"928","Set1/165a.jpg","79","image-keyboard-response","462","457421","0.0-3.0-1.229","","","Set_2_Only","o","true"
"null","<div style=""font-size:60px;"">+</div>","null","html-keyboard-response","463","457923","0.0-3.0-0.230","","fixation","","",""
"865","Set1/062a.jpg","79","image-keyboard-response","464","458789","0.0-3.0-1.230","","","Repeat","o","true"
"null","<div style=""font-size:60px;"">+</div>","null","html-keyboard-response","465","459291","0.0-3.0-0.231","","fixation","","",""
"776","Set1/152b.jpg","79","image-keyboard-response","466","460069","0.0-3.0-1.231","","","Update","o","true"
"null","<div style=""font-size:60px;"">+</div>","null","html-keyboard-response","467","460571","0.0-3.0-0.232","","fixation","","",""
"1017","Set1/053a.jpg","79","image-keyboard-response","468","461589","0.0-3.0-1.232","","","Repeat","o","true"
"null","<div style=""font-size:60px;"">+</div>","null","html-keyboard-response","469","462090","0.0-3.0-0.233","","fixation","","",""
"760","Set1/190a.jpg","79","image-keyboard-response","470","462853","0.0-3.0-1.233","","","Set_2_Only","o","true"
"null","<div style=""font-size:60px;"">+</div>","null","html-keyboard-response","471","463355","0.0-3.0-0.234","","fixation","","",""
"1465","Set1/082a.jpg","79","image-keyboard-response","472","464821","0.0-3.0-1.234","","","Repeat","o","true"
"null","<div style=""font-size:60px;"">+</div>","null","html-keyboard-response","473","465323","0.0-3.0-0.235","","fixation","","",""
"1056","Set1/085a.jpg","79","image-keyboard-response","474","466381","0.0-3.0-1.235","","","Repeat","o","true"
"null","<div style=""font-size:60px;"">+</div>","null","html-keyboard-response","475","466883","0.0-3.0-0.236","","fixation","","",""
"1072","Set1/169a.jpg","78","image-keyboard-response","476","467956","0.0-3.0-1.236","","","Set_2_Only","o","false"
"null","<div style=""font-size:60px;"">+</div>","null","html-keyboard-response","477","468458","0.0-3.0-0.237","","fixation","","",""
"976","Set1/122b.jpg","79","image-keyboard-response","478","469436","0.0-3.0-1.237","","","Update","o","true"
"null","<div style=""font-size:60px;"">+</div>","null","html-keyboard-response","479","469938","0.0-3.0-0.238","","fixation","","",""
"1642","Set1/189a.jpg","79","image-keyboard-response","480","471581","0.0-3.0-1.238","","","Set_2_Only","o","true"
"null","<div style=""font-size:60px;"">+</div>","null","html-keyboard-response","481","472083","0.0-3.0-0.239","","fixation","","",""
"1248","Set1/115b.jpg","79","image-keyboard-response","482","473332","0.0-3.0-1.239","","","Update","o","true"
"null","<div style=""font-size:60px;"">+</div>","null","html-keyboard-response","483","473834","0.0-3.0-0.240","","fixation","","",""
"1536","Set1/081a.jpg","78","image-keyboard-response","484","475372","0.0-3.0-1.240","","","Repeat","n","true"
"null","<div style=""font-size:60px;"">+</div>","null","html-keyboard-response","485","475875","0.0-3.0-0.241","","fixation","","",""
"1648","Set1/166a.jpg","78","image-keyboard-response","486","477524","0.0-3.0-1.241","","","Set_2_Only","n","true"
"null","<div style=""font-size:60px;"">+</div>","null","html-keyboard-response","487","478026","0.0-3.0-0.242","","fixation","","",""
"1241","Set1/111b.jpg","78","image-keyboard-response","488","479268","0.0-3.0-1.242","","","Update","n","true"
"null","<div style=""font-size:60px;"">+</div>","null","html-keyboard-response","489","479769","0.0-3.0-0.243","","fixation","","",""
"1001","Set1/063a.jpg","78","image-keyboard-response","490","480772","0.0-3.0-1.243","","","Repeat","n","true"
"null","<div style=""font-size:60px;"">+</div>","null","html-keyboard-response","491","481273","0.0-3.0-0.244","","fixation","","",""
"1161","Set1/127b.jpg","78","image-keyboard-response","492","482436","0.0-3.0-1.244","","","Update","n","true"
"null","<div style=""font-size:60px;"">+</div>","null","html-keyboard-response","493","482938","0.0-3.0-0.245","","fixation","","",""
"1184","Set1/077a.jpg","78","image-keyboard-response","494","484124","0.0-3.0-1.245","","","Repeat","n","true"
"null","<div style=""font-size:60px;"">+</div>","null","html-keyboard-response","495","484626","0.0-3.0-0.246","","fixation","","",""
"1433","Set1/117b.jpg","78","image-keyboard-response","496","486060","0.0-3.0-1.246","","","Update","n","true"
"null","<div style=""font-size:60px;"">+</div>","null","html-keyboard-response","497","486562","0.0-3.0-0.247","","fixation","","",""
"1601","Set1/110b.jpg","78","image-keyboard-response","498","488164","0.0-3.0-1.247","","","Update","n","true"
"null","<div style=""font-size:60px;"">+</div>","null","html-keyboard-response","499","488666","0.0-3.0-0.248","","fixation","","",""
"965","Set1/137b.jpg","78","image-keyboard-response","500","489636","0.0-3.0-1.248","","","Update","n","true"
"null","<div style=""font-size:60px;"">+</div>","null","html-keyboard-response","501","490138","0.0-3.0-0.249","","fixation","","",""
"1799","Set1/146b.jpg","78","image-keyboard-response","502","491940","0.0-3.0-1.249","","","Update","n","true"
"null","<div style=""font-size:60px;"">+</div>","null","html-keyboard-response","503","492441","0.0-3.0-0.250","","fixation","","",""
"945","Set1/164a.jpg","79","image-keyboard-response","504","493388","0.0-3.0-1.250","","","Set_2_Only","n","false"
"null","<div style=""font-size:60px;"">+</div>","null","html-keyboard-response","505","493890","0.0-3.0-0.251","","fixation","","",""
"2096","Set1/132b.jpg","79","image-keyboard-response","506","495988","0.0-3.0-1.251","","","Update","n","false"
"null","<div style=""font-size:60px;"">+</div>","null","html-keyboard-response","507","496490","0.0-3.0-0.252","","fixation","","",""
"1159","Set1/136b.jpg","78","image-keyboard-response","508","497651","0.0-3.0-1.252","","","Update","n","true"
"null","<div style=""font-size:60px;"">+</div>","null","html-keyboard-response","509","498153","0.0-3.0-0.253","","fixation","","",""
"1344","Set1/072a.jpg","78","image-keyboard-response","510","499499","0.0-3.0-1.253","","","Repeat","n","true"
"null","<div style=""font-size:60px;"">+</div>","null","html-keyboard-response","511","500001","0.0-3.0-0.254","","fixation","","",""
"944","Set1/049a.jpg","78","image-keyboard-response","512","500947","0.0-3.0-1.254","","","Repeat","n","true"
"null","<div style=""font-size:60px;"">+</div>","null","html-keyboard-response","513","501449","0.0-3.0-0.255","","fixation","","",""
"1128","Set1/133b.jpg","78","image-keyboard-response","514","502579","0.0-3.0-1.255","","","Update","n","true"
"null","<div style=""font-size:60px;"">+</div>","null","html-keyboard-response","515","503081","0.0-3.0-0.256","","fixation","","",""
"1792","Set1/109b.jpg","78","image-keyboard-response","516","504875","0.0-3.0-1.256","","","Update","n","true"
"null","<div style=""font-size:60px;"">+</div>","null","html-keyboard-response","517","505377","0.0-3.0-0.257","","fixation","","",""
"1577","Set1/121b.jpg","78","image-keyboard-response","518","506955","0.0-3.0-1.257","","","Update","n","true"
"null","<div style=""font-size:60px;"">+</div>","null","html-keyboard-response","519","507463","0.0-3.0-0.258","","fixation","","",""
"907","Set1/111b.jpg","79","image-keyboard-response","520","508371","0.0-3.0-1.258","","","Update","o","true"
"null","<div style=""font-size:60px;"">+</div>","null","html-keyboard-response","521","508873","0.0-3.0-0.259","","fixation","","",""
"1040","Set1/129b.jpg","78","image-keyboard-response","522","509915","0.0-3.0-1.259","","","Update","n","true"
"null","<div style=""font-size:60px;"">+</div>","null","html-keyboard-response","523","510417","0.0-3.0-0.260","","fixation","","",""
"1177","Set1/088a.jpg","78","image-keyboard-response","524","511596","0.0-3.0-1.260","","","Repeat","n","true"
"null","<div style=""font-size:60px;"">+</div>","null","html-keyboard-response","525","512097","0.0-3.0-0.261","","fixation","","",""
"936","Set1/136b.jpg","79","image-keyboard-response","526","513035","0.0-3.0-1.261","","","Update","o","true"
"null","<div style=""font-size:60px;"">+</div>","null","html-keyboard-response","527","513537","0.0-3.0-0.262","","fixation","","",""
"1008","Set1/088a.jpg","79","image-keyboard-response","528","514547","0.0-3.0-1.262","","","Repeat","o","true"
"null","<div style=""font-size:60px;"">+</div>","null","html-keyboard-response","529","515049","0.0-3.0-0.263","","fixation","","",""
"1360","Set1/125b.jpg","78","image-keyboard-response","530","516411","0.0-3.0-1.263","","","Update","n","true"
"null","<div style=""font-size:60px;"">+</div>","null","html-keyboard-response","531","516913","0.0-3.0-0.264","","fixation","","",""
"904","Set1/054a.jpg","78","image-keyboard-response","532","517818","0.0-3.0-1.264","","","Repeat","n","true"
"null","<div style=""font-size:60px;"">+</div>","null","html-keyboard-response","533","518320","0.0-3.0-0.265","","fixation","","",""
"928","Set1/099b.jpg","78","image-keyboard-response","534","519250","0.0-3.0-1.265","","","Update","n","true"
"null","<div style=""font-size:60px;"">+</div>","null","html-keyboard-response","535","519751","0.0-3.0-0.266","","fixation","","",""
"1369","Set1/166a.jpg","78","image-keyboard-response","536","521122","0.0-3.0-1.266","","","Set_2_Only","o","false"
"null","<div style=""font-size:60px;"">+</div>","null","html-keyboard-response","537","521624","0.0-3.0-0.267","","fixation","","",""
"1104","Set1/093a.jpg","78","image-keyboard-response","538","522730","0.0-3.0-1.267","","","Repeat","n","true"
"null","<div style=""font-size:60px;"">+</div>","null","html-keyboard-response","539","523232","0.0-3.0-0.268","","fixation","","",""
"1768","Set1/060a.jpg","78","image-keyboard-response","540","525002","0.0-3.0-1.268","","","Repeat","n","true"
"null","<div style=""font-size:60px;"">+</div>","null","html-keyboard-response","541","525504","0.0-3.0-0.269","","fixation","","",""
"888","Set1/110b.jpg","79","image-keyboard-response","542","526394","0.0-3.0-1.269","","","Update","o","true"
"null","<div style=""font-size:60px;"">+</div>","null","html-keyboard-response","543","526896","0.0-3.0-0.270","","fixation","","",""
"2129","Set1/093a.jpg","79","image-keyboard-response","544","529027","0.0-3.0-1.270","","","Repeat","o","true"
"null","<div style=""font-size:60px;"">+</div>","null","html-keyboard-response","545","529529","0.0-3.0-0.271","","fixation","","",""
"1016","Set1/180a.jpg","78","image-keyboard-response","546","530546","0.0-3.0-1.271","","","Set_2_Only","n","true"
"null","<div style=""font-size:60px;"">+</div>","null","html-keyboard-response","547","531048","0.0-3.0-0.272","","fixation","","",""
"1375","Set1/120b.jpg","78","image-keyboard-response","548","532426","0.0-3.0-1.272","","","Update","n","true"
"null","<div style=""font-size:60px;"">+</div>","null","html-keyboard-response","549","532928","0.0-3.0-0.273","","fixation","","",""
"1145","Set1/178a.jpg","78","image-keyboard-response","550","534074","0.0-3.0-1.273","","","Set_2_Only","n","true"
"null","<div style=""font-size:60px;"">+</div>","null","html-keyboard-response","551","534576","0.0-3.0-0.274","","fixation","","",""
"1200","Set1/079a.jpg","78","image-keyboard-response","552","535778","0.0-3.0-1.274","","","Repeat","n","true"
"null","<div style=""font-size:60px;"">+</div>","null","html-keyboard-response","553","536280","0.0-3.0-0.275","","fixation","","",""
"1248","Set1/151b.jpg","78","image-keyboard-response","554","537530","0.0-3.0-1.275","","","Update","n","true"
"null","<div style=""font-size:60px;"">+</div>","null","html-keyboard-response","555","538031","0.0-3.0-0.276","","fixation","","",""
"1082","Set1/181a.jpg","78","image-keyboard-response","556","539114","0.0-3.0-1.276","","","Set_2_Only","n","true"
"null","<div style=""font-size:60px;"">+</div>","null","html-keyboard-response","557","539615","0.0-3.0-0.277","","fixation","","",""
"850","Set1/099b.jpg","79","image-keyboard-response","558","540466","0.0-3.0-1.277","","","Update","o","true"
"null","<div style=""font-size:60px;"">+</div>","null","html-keyboard-response","559","540968","0.0-3.0-0.278","","fixation","","",""
"928","Set1/102b.jpg","78","image-keyboard-response","560","541897","0.0-3.0-1.278","","","Update","n","true"
"null","<div style=""font-size:60px;"">+</div>","null","html-keyboard-response","561","542399","0.0-3.0-0.279","","fixation","","",""
"1576","Set1/167a.jpg","78","image-keyboard-response","562","543977","0.0-3.0-1.279","","","Set_2_Only","n","true"
"null","<div style=""font-size:60px;"">+</div>","null","html-keyboard-response","563","544479","0.0-3.0-0.280","","fixation","","",""
"825","Set1/102b.jpg","79","image-keyboard-response","564","545305","0.0-3.0-1.280","","","Update","o","true"
"null","<div style=""font-size:60px;"">+</div>","null","html-keyboard-response","565","545807","0.0-3.0-0.281","","fixation","","",""
"1857","Set1/092a.jpg","79","image-keyboard-response","566","547665","0.0-3.0-1.281","","","Repeat","n","false"
"null","<div style=""font-size:60px;"">+</div>","null","html-keyboard-response","567","548168","0.0-3.0-0.282","","fixation","","",""
"784","Set1/081a.jpg","79","image-keyboard-response","568","548953","0.0-3.0-1.282","","","Repeat","o","true"
"null","<div style=""font-size:60px;"">+</div>","null","html-keyboard-response","569","549456","0.0-3.0-0.283","","fixation","","",""
"720","Set1/120b.jpg","79","image-keyboard-response","570","550177","0.0-3.0-1.283","","","Update","o","true"
"null","<div style=""font-size:60px;"">+</div>","null","html-keyboard-response","571","550679","0.0-3.0-0.284","","fixation","","",""
"849","Set1/076a.jpg","78","image-keyboard-response","572","551529","0.0-3.0-1.284","","","Repeat","n","true"
"null","<div style=""font-size:60px;"">+</div>","null","html-keyboard-response","573","552031","0.0-3.0-0.285","","fixation","","",""
"2184","Set1/033a.jpg","78","image-keyboard-response","574","554217","0.0-3.0-1.285","","","Repeat","n","true"
"null","<div style=""font-size:60px;"">+</div>","null","html-keyboard-response","575","554718","0.0-3.0-0.286","","fixation","","",""
"1064","Set1/125b.jpg","79","image-keyboard-response","576","555783","0.0-3.0-1.286","","","Update","o","true"
"null","<div style=""font-size:60px;"">+</div>","null","html-keyboard-response","577","556288","0.0-3.0-0.287","","fixation","","",""
"935","Set1/127b.jpg","79","image-keyboard-response","578","557225","0.0-3.0-1.287","","","Update","o","true"
"null","<div style=""font-size:60px;"">+</div>","null","html-keyboard-response","579","557727","0.0-3.0-0.288","","fixation","","",""
"761","Set1/092a.jpg","79","image-keyboard-response","580","558489","0.0-3.0-1.288","","","Repeat","o","true"
"null","<div style=""font-size:60px;"">+</div>","null","html-keyboard-response","581","558991","0.0-3.0-0.289","","fixation","","",""
"681","Set1/181a.jpg","79","image-keyboard-response","582","559673","0.0-3.0-1.289","","","Set_2_Only","o","true"
"null","<div style=""font-size:60px;"">+</div>","null","html-keyboard-response","583","560177","0.0-3.0-0.290","","fixation","","",""
"1422","Set1/086a.jpg","78","image-keyboard-response","584","561601","0.0-3.0-1.290","","","Repeat","n","true"
"null","<div style=""font-size:60px;"">+</div>","null","html-keyboard-response","585","562102","0.0-3.0-0.291","","fixation","","",""
"1264","Set1/109b.jpg","79","image-keyboard-response","586","563369","0.0-3.0-1.291","","","Update","o","true"
"null","<div style=""font-size:60px;"">+</div>","null","html-keyboard-response","587","563871","0.0-3.0-0.292","","fixation","","",""
"983","Set1/167a.jpg","79","image-keyboard-response","588","564857","0.0-3.0-1.292","","","Set_2_Only","o","true"
"null","<div style=""font-size:60px;"">+</div>","null","html-keyboard-response","589","565359","0.0-3.0-0.293","","fixation","","",""
"793","Set1/129b.jpg","79","image-keyboard-response","590","566153","0.0-3.0-1.293","","","Update","o","true"
"null","<div style=""font-size:60px;"">+</div>","null","html-keyboard-response","591","566655","0.0-3.0-0.294","","fixation","","",""
"880","Set1/180a.jpg","79","image-keyboard-response","592","567536","0.0-3.0-1.294","","","Set_2_Only","o","true"
"null","<div style=""font-size:60px;"">+</div>","null","html-keyboard-response","593","568039","0.0-3.0-0.295","","fixation","","",""
"664","Set1/121b.jpg","79","image-keyboard-response","594","568704","0.0-3.0-1.295","","","Update","o","true"
"null","<div style=""font-size:60px;"">+</div>","null","html-keyboard-response","595","569206","0.0-3.0-0.296","","fixation","","",""
"945","Set1/178a.jpg","79","image-keyboard-response","596","570152","0.0-3.0-1.296","","","Set_2_Only","o","true"
"null","<div style=""font-size:60px;"">+</div>","null","html-keyboard-response","597","570654","0.0-3.0-0.297","","fixation","","",""
"1463","Set1/094a.jpg","79","image-keyboard-response","598","572120","0.0-3.0-1.297","","","Repeat","n","false"
"null","<div style=""font-size:60px;"">+</div>","null","html-keyboard-response","599","572622","0.0-3.0-0.298","","fixation","","",""
"1257","Set1/137b.jpg","79","image-keyboard-response","600","573880","0.0-3.0-1.298","","","Update","o","true"
"null","<div style=""font-size:60px;"">+</div>","null","html-keyboard-response","601","574382","0.0-3.0-0.299","","fixation","","",""
"800","Set1/060a.jpg","79","image-keyboard-response","602","575184","0.0-3.0-1.299","","","Repeat","o","true"
"null","<div style=""font-size:60px;"">+</div>","null","html-keyboard-response","603","575686","0.0-3.0-0.300","","fixation","","",""
"784","Set1/133b.jpg","79","image-keyboard-response","604","576472","0.0-3.0-1.300","","","Update","o","true"
"null","<div style=""font-size:60px;"">+</div>","null","html-keyboard-response","605","576974","0.0-3.0-0.301","","fixation","","",""
"936","Set1/164a.jpg","79","image-keyboard-response","606","577912","0.0-3.0-1.301","","","Set_2_Only","o","true"
"null","<div style=""font-size:60px;"">+</div>","null","html-keyboard-response","607","578414","0.0-3.0-0.302","","fixation","","",""
"641","Set1/054a.jpg","79","image-keyboard-response","608","579056","0.0-3.0-1.302","","","Repeat","o","true"
"null","<div style=""font-size:60px;"">+</div>","null","html-keyboard-response","609","579558","0.0-3.0-0.303","","fixation","","",""
"847","Set1/117b.jpg","79","image-keyboard-response","610","580408","0.0-3.0-1.303","","","Update","o","true"
"null","<div style=""font-size:60px;"">+</div>","null","html-keyboard-response","611","580909","0.0-3.0-0.304","","fixation","","",""
"1001","Set1/049a.jpg","79","image-keyboard-response","612","581912","0.0-3.0-1.304","","","Repeat","o","true"
"null","<div style=""font-size:60px;"">+</div>","null","html-keyboard-response","613","582414","0.0-3.0-0.305","","fixation","","",""
"1065","Set1/132b.jpg","79","image-keyboard-response","614","583480","0.0-3.0-1.305","","","Update","o","true"
"null","<div style=""font-size:60px;"">+</div>","null","html-keyboard-response","615","583982","0.0-3.0-0.306","","fixation","","",""
"888","Set1/151b.jpg","79","image-keyboard-response","616","584872","0.0-3.0-1.306","","","Update","o","true"
"null","<div style=""font-size:60px;"">+</div>","null","html-keyboard-response","617","585374","0.0-3.0-0.307","","fixation","","",""
"1048","Set1/086a.jpg","79","image-keyboard-response","618","586423","0.0-3.0-1.307","","","Repeat","o","true"
"null","<div style=""font-size:60px;"">+</div>","null","html-keyboard-response","619","586924","0.0-3.0-0.308","","fixation","","",""
"955","Set1/160b.jpg","78","image-keyboard-response","620","587880","0.0-3.0-1.308","","","Update","n","true"
"null","<div style=""font-size:60px;"">+</div>","null","html-keyboard-response","621","588382","0.0-3.0-0.309","","fixation","","",""
"952","Set1/094a.jpg","79","image-keyboard-response","622","589335","0.0-3.0-1.309","","","Repeat","o","true"
"null","<div style=""font-size:60px;"">+</div>","null","html-keyboard-response","623","589838","0.0-3.0-0.310","","fixation","","",""
"1032","Set1/146b.jpg","79","image-keyboard-response","624","590871","0.0-3.0-1.310","","","Update","o","true"
"null","<div style=""font-size:60px;"">+</div>","null","html-keyboard-response","625","591373","0.0-3.0-0.311","","fixation","","",""
"1033","Set1/160b.jpg","78","image-keyboard-response","626","592408","0.0-3.0-1.311","","","Update","o","false"
"null","<div style=""font-size:60px;"">+</div>","null","html-keyboard-response","627","592910","0.0-3.0-0.312","","fixation","","",""
"1240","Set1/072a.jpg","79","image-keyboard-response","628","594151","0.0-3.0-1.312","","","Repeat","o","true"
"null","<div style=""font-size:60px;"">+</div>","null","html-keyboard-response","629","594653","0.0-3.0-0.313","","fixation","","",""
"976","Set1/076a.jpg","79","image-keyboard-response","630","595631","0.0-3.0-1.313","","","Repeat","o","true"
"null","<div style=""font-size:60px;"">+</div>","null","html-keyboard-response","631","596133","0.0-3.0-0.314","","fixation","","",""
"808","Set1/079a.jpg","79","image-keyboard-response","632","596943","0.0-3.0-1.314","","","Repeat","o","true"
"null","<div style=""font-size:60px;"">+</div>","null","html-keyboard-response","633","597445","0.0-3.0-0.315","","fixation","","",""
"768","Set1/033a.jpg","79","image-keyboard-response","634","598215","0.0-3.0-1.315","","","Repeat","o","true"
"null","<div style=""font-size:60px;"">+</div>","null","html-keyboard-response","635","598719","0.0-3.0-0.316","","fixation","","",""
"879","Set1/051a.jpg","78","image-keyboard-response","636","599599","0.0-3.0-1.316","","","Repeat","n","true"
"null","<div style=""font-size:60px;"">+</div>","null","html-keyboard-response","637","600101","0.0-3.0-0.317","","fixation","","",""
"928","Set1/077a.jpg","79","image-keyboard-response","638","601031","0.0-3.0-1.317","","","Repeat","o","true"
"null","<div style=""font-size:60px;"">+</div>","null","html-keyboard-response","639","601533","0.0-3.0-0.318","","fixation","","",""
"1193","Set1/051a.jpg","79","image-keyboard-response","640","602727","0.0-3.0-1.318","","","Repeat","o","true"
"null","<div style=""font-size:60px;"">+</div>","null","html-keyboard-response","641","603229","0.0-3.0-0.319","","fixation","","",""
"888","Set1/063a.jpg","79","image-keyboard-response","642","604119","0.0-3.0-1.319","","","Repeat","o","true"
