"rt","stimulus","key_press","trial_type","trial_index","time_elapsed","internal_node_id","responses","test_part","stim_type","correct_response","correct"
"4903","Press any key to begin.","32","html-keyboard-response","0","4906","0.0-0.0","","","","",""
"11798","","","survey-text","1","16706","0.0-1.0","{""Q0"":""Test128690"",""Q1"":""""}","","","",""
"38447","<p>For this phase you will see two similar images side by side on the screen I want you to tell us which of the items you have seen before in any of the previous sets of images. </p><p>If you have only seen the image on the left you will press the 'L' key on your keyboard.</p>If you have only seen the image on the right you will press the 'R' key on your keyboard.</p>If you have previously seen both of the images you will press the 'B' key on your keyboard.</p>If you have not seen either image you will press the 'N' key on your keyboard.</p><div style='width: 700px;'></div><p>Press any key to begin.</p>","65","html-keyboard-response","2","55156","0.0-2.0","","","","",""
"null","<div style=""font-size:60px;"">+</div>","null","html-keyboard-response","3","57659","0.0-3.0-0.0","","fixation","","",""
"4573","b_a montage/ba_038.jpg","82","image-keyboard-response","4","62234","0.0-3.0-1.0","","","Repeat","r","true"
"null","<div style=""font-size:60px;"">+</div>","null","html-keyboard-response","5","62736","0.0-3.0-0.1","","fixation","","",""
"2991","a_b new/ab_008.jpg","78","image-keyboard-response","6","65729","0.0-3.0-1.1","","","Neither","n","true"
"null","<div style=""font-size:60px;"">+</div>","null","html-keyboard-response","7","66231","0.0-3.0-0.2","","fixation","","",""
"4159","a_b montage/ab_109.jpg","66","image-keyboard-response","8","70392","0.0-3.0-1.2","","","Update","b","true"
"null","<div style=""font-size:60px;"">+</div>","null","html-keyboard-response","9","70894","0.0-3.0-0.3","","fixation","","",""
"3581","a_b montage/ab_088.jpg","66","image-keyboard-response","10","74476","0.0-3.0-1.3","","","Repeat","l","false"
"null","<div style=""font-size:60px;"">+</div>","null","html-keyboard-response","11","74978","0.0-3.0-0.4","","fixation","","",""
"4820","a_b montage/ab_067.jpg","82","image-keyboard-response","12","79800","0.0-3.0-1.4","","","Repeat","l","false"
"null","<div style=""font-size:60px;"">+</div>","null","html-keyboard-response","13","80302","0.0-3.0-0.5","","fixation","","",""
"2874","b_a montage/ba_174.jpg","76","image-keyboard-response","14","83177","0.0-3.0-1.5","","","Set_2_Only","r","false"
"null","<div style=""font-size:60px;"">+</div>","null","html-keyboard-response","15","83679","0.0-3.0-0.6","","fixation","","",""
"2336","a_b montage/ab_103.jpg","76","image-keyboard-response","16","86017","0.0-3.0-1.6","","","Update","b","false"
"null","<div style=""font-size:60px;"">+</div>","null","html-keyboard-response","17","86519","0.0-3.0-0.7","","fixation","","",""
"2487","a_b montage/ab_129.jpg","82","image-keyboard-response","18","89009","0.0-3.0-1.7","","","Update","b","false"
"null","<div style=""font-size:60px;"">+</div>","null","html-keyboard-response","19","89511","0.0-3.0-0.8","","fixation","","",""
"2665","a_b montage/ab_130.jpg","66","image-keyboard-response","20","92177","0.0-3.0-1.8","","","Update","b","true"
"null","<div style=""font-size:60px;"">+</div>","null","html-keyboard-response","21","92679","0.0-3.0-0.9","","fixation","","",""
"3622","a_b montage/ab_181.jpg","76","image-keyboard-response","22","96302","0.0-3.0-1.9","","","Set_2_Only","l","true"
"null","<div style=""font-size:60px;"">+</div>","null","html-keyboard-response","23","96804","0.0-3.0-0.10","","fixation","","",""
"2935","a_b montage/ab_179.jpg","76","image-keyboard-response","24","99740","0.0-3.0-1.10","","","Set_2_Only","l","true"
"null","<div style=""font-size:60px;"">+</div>","null","html-keyboard-response","25","100242","0.0-3.0-0.11","","fixation","","",""
"2958","a_b new/ab_016.jpg","78","image-keyboard-response","26","103201","0.0-3.0-1.11","","","Neither","n","true"
"null","<div style=""font-size:60px;"">+</div>","null","html-keyboard-response","27","103703","0.0-3.0-0.12","","fixation","","",""
"3484","a_b montage/ab_153.jpg","76","image-keyboard-response","28","107188","0.0-3.0-1.12","","","Update","b","false"
"null","<div style=""font-size:60px;"">+</div>","null","html-keyboard-response","29","107690","0.0-3.0-0.13","","fixation","","",""
"4182","b_a montage/ba_009.jpg","82","image-keyboard-response","30","111873","0.0-3.0-1.13","","","Set_1_Only","r","true"
"null","<div style=""font-size:60px;"">+</div>","null","html-keyboard-response","31","112375","0.0-3.0-0.14","","fixation","","",""
"4469","a_b montage/ab_141.jpg","82","image-keyboard-response","32","116847","0.0-3.0-1.14","","","Update","b","false"
"null","<div style=""font-size:60px;"">+</div>","null","html-keyboard-response","33","117349","0.0-3.0-0.15","","fixation","","",""
"2393","a_b montage/ab_079.jpg","76","image-keyboard-response","34","119743","0.0-3.0-1.15","","","Repeat","l","true"
"null","<div style=""font-size:60px;"">+</div>","null","html-keyboard-response","35","120245","0.0-3.0-0.16","","fixation","","",""
"3698","b_a montage/ba_176.jpg","76","image-keyboard-response","36","123944","0.0-3.0-1.16","","","Set_2_Only","r","false"
"null","<div style=""font-size:60px;"">+</div>","null","html-keyboard-response","37","124446","0.0-3.0-0.17","","fixation","","",""
"3631","a_b montage/ab_017.jpg","78","image-keyboard-response","38","128079","0.0-3.0-1.17","","","Set_1_Only","l","false"
"null","<div style=""font-size:60px;"">+</div>","null","html-keyboard-response","39","128581","0.0-3.0-0.18","","fixation","","",""
"4009","a_b montage/ab_069.jpg","76","image-keyboard-response","40","132591","0.0-3.0-1.18","","","Repeat","l","true"
"null","<div style=""font-size:60px;"">+</div>","null","html-keyboard-response","41","133093","0.0-3.0-0.19","","fixation","","",""
"2657","a_b montage/ab_100.jpg","82","image-keyboard-response","42","135751","0.0-3.0-1.19","","","Update","b","false"
"null","<div style=""font-size:60px;"">+</div>","null","html-keyboard-response","43","136253","0.0-3.0-0.20","","fixation","","",""
"3000","a_b new/ab_001.jpg","78","image-keyboard-response","44","139254","0.0-3.0-1.20","","","Neither","n","true"
"null","<div style=""font-size:60px;"">+</div>","null","html-keyboard-response","45","139756","0.0-3.0-0.21","","fixation","","",""
"2032","b_a montage/ba_013.jpg","78","image-keyboard-response","46","141791","0.0-3.0-1.21","","","Set_1_Only","r","false"
"null","<div style=""font-size:60px;"">+</div>","null","html-keyboard-response","47","142293","0.0-3.0-0.22","","fixation","","",""
"3435","a_b montage/ab_066.jpg","76","image-keyboard-response","48","145729","0.0-3.0-1.22","","","Repeat","l","true"
"null","<div style=""font-size:60px;"">+</div>","null","html-keyboard-response","49","146231","0.0-3.0-0.23","","fixation","","",""
"3505","b_a montage/ba_041.jpg","82","image-keyboard-response","50","149737","0.0-3.0-1.23","","","Repeat","r","true"
"null","<div style=""font-size:60px;"">+</div>","null","html-keyboard-response","51","150239","0.0-3.0-0.24","","fixation","","",""
"3502","b_a montage/ba_043.jpg","76","image-keyboard-response","52","153749","0.0-3.0-1.24","","","Repeat","r","false"
"null","<div style=""font-size:60px;"">+</div>","null","html-keyboard-response","53","154251","0.0-3.0-0.25","","fixation","","",""
"3362","a_b montage/ab_080.jpg","76","image-keyboard-response","54","157615","0.0-3.0-1.25","","","Repeat","l","true"
"null","<div style=""font-size:60px;"">+</div>","null","html-keyboard-response","55","158117","0.0-3.0-0.26","","fixation","","",""
"3860","a_b montage/ab_131.jpg","82","image-keyboard-response","56","161978","0.0-3.0-1.26","","","Update","b","false"
"null","<div style=""font-size:60px;"">+</div>","null","html-keyboard-response","57","162480","0.0-3.0-0.27","","fixation","","",""
"3937","a_b montage/ab_147.jpg","66","image-keyboard-response","58","166420","0.0-3.0-1.27","","","Update","b","true"
"null","<div style=""font-size:60px;"">+</div>","null","html-keyboard-response","59","166921","0.0-3.0-0.28","","fixation","","",""
"3908","b_a montage/ba_047.jpg","82","image-keyboard-response","60","170831","0.0-3.0-1.28","","","Repeat","r","true"
"null","<div style=""font-size:60px;"">+</div>","null","html-keyboard-response","61","171334","0.0-3.0-0.29","","fixation","","",""
"3263","b_a montage/ba_168.jpg","82","image-keyboard-response","62","174599","0.0-3.0-1.29","","","Set_2_Only","r","true"
"null","<div style=""font-size:60px;"">+</div>","null","html-keyboard-response","63","175100","0.0-3.0-0.30","","fixation","","",""
"3505","a_b montage/ab_104.jpg","66","image-keyboard-response","64","178606","0.0-3.0-1.30","","","Update","b","true"
"null","<div style=""font-size:60px;"">+</div>","null","html-keyboard-response","65","179109","0.0-3.0-0.31","","fixation","","",""
"4378","a_b montage/ab_159.jpg","82","image-keyboard-response","66","183488","0.0-3.0-1.31","","","Update","b","false"
"null","<div style=""font-size:60px;"">+</div>","null","html-keyboard-response","67","183990","0.0-3.0-0.32","","fixation","","",""
"3525","a_b montage/ab_091.jpg","76","image-keyboard-response","68","187517","0.0-3.0-1.32","","","Repeat","l","true"
"null","<div style=""font-size:60px;"">+</div>","null","html-keyboard-response","69","188018","0.0-3.0-0.33","","fixation","","",""
"4347","a_b montage/ab_185.jpg","76","image-keyboard-response","70","192367","0.0-3.0-1.33","","","Set_2_Only","l","true"
"null","<div style=""font-size:60px;"">+</div>","null","html-keyboard-response","71","192869","0.0-3.0-0.34","","fixation","","",""
"3585","a_b montage/ab_107.jpg","76","image-keyboard-response","72","196455","0.0-3.0-1.34","","","Update","b","false"
"null","<div style=""font-size:60px;"">+</div>","null","html-keyboard-response","73","196957","0.0-3.0-0.35","","fixation","","",""
"4350","b_a montage/ba_163.jpg","82","image-keyboard-response","74","201308","0.0-3.0-1.35","","","Set_2_Only","r","true"
"null","<div style=""font-size:60px;"">+</div>","null","html-keyboard-response","75","201810","0.0-3.0-0.36","","fixation","","",""
"2103","a_b new/ab_011.jpg","66","image-keyboard-response","76","203916","0.0-3.0-1.36","","","Neither","n","false"
"null","<div style=""font-size:60px;"">+</div>","null","html-keyboard-response","77","204418","0.0-3.0-0.37","","fixation","","",""
"2184","a_b montage/ab_182.jpg","66","image-keyboard-response","78","206604","0.0-3.0-1.37","","","Set_2_Only","l","false"
"null","<div style=""font-size:60px;"">+</div>","null","html-keyboard-response","79","207105","0.0-3.0-0.38","","fixation","","",""
"5556","a_b montage/ab_188.jpg","78","image-keyboard-response","80","212663","0.0-3.0-1.38","","","Set_2_Only","l","false"
"null","<div style=""font-size:60px;"">+</div>","null","html-keyboard-response","81","213165","0.0-3.0-0.39","","fixation","","",""
"2895","a_b montage/ab_099.jpg","76","image-keyboard-response","82","216063","0.0-3.0-1.39","","","Update","b","false"
"null","<div style=""font-size:60px;"">+</div>","null","html-keyboard-response","83","216565","0.0-3.0-0.40","","fixation","","",""
"3742","a_b montage/ab_127.jpg","66","image-keyboard-response","84","220308","0.0-3.0-1.40","","","Update","b","true"
"null","<div style=""font-size:60px;"">+</div>","null","html-keyboard-response","85","220810","0.0-3.0-0.41","","fixation","","",""
"2968","b_a montage/ba_050.jpg","66","image-keyboard-response","86","223780","0.0-3.0-1.41","","","Repeat","r","false"
"null","<div style=""font-size:60px;"">+</div>","null","html-keyboard-response","87","224281","0.0-3.0-0.42","","fixation","","",""
"3988","a_b montage/ab_142.jpg","82","image-keyboard-response","88","228271","0.0-3.0-1.42","","","Update","b","false"
"null","<div style=""font-size:60px;"">+</div>","null","html-keyboard-response","89","228773","0.0-3.0-0.43","","fixation","","",""
"4578","b_a montage/ba_056.jpg","66","image-keyboard-response","90","233352","0.0-3.0-1.43","","","Repeat","r","false"
"null","<div style=""font-size:60px;"">+</div>","null","html-keyboard-response","91","233854","0.0-3.0-0.44","","fixation","","",""
"3165","a_b montage/ab_150.jpg","82","image-keyboard-response","92","237020","0.0-3.0-1.44","","","Update","b","false"
"null","<div style=""font-size:60px;"">+</div>","null","html-keyboard-response","93","237522","0.0-3.0-0.45","","fixation","","",""
"2824","a_b montage/ab_020.jpg","78","image-keyboard-response","94","240349","0.0-3.0-1.45","","","Set_1_Only","l","false"
"null","<div style=""font-size:60px;"">+</div>","null","html-keyboard-response","95","240850","0.0-3.0-0.46","","fixation","","",""
"3763","a_b montage/ab_139.jpg","82","image-keyboard-response","96","244615","0.0-3.0-1.46","","","Update","b","false"
"null","<div style=""font-size:60px;"">+</div>","null","html-keyboard-response","97","245117","0.0-3.0-0.47","","fixation","","",""
"3423","a_b montage/ab_149.jpg","76","image-keyboard-response","98","248541","0.0-3.0-1.47","","","Update","b","false"
"null","<div style=""font-size:60px;"">+</div>","null","html-keyboard-response","99","249043","0.0-3.0-0.48","","fixation","","",""
"4138","a_b new/ab_003.jpg","78","image-keyboard-response","100","253182","0.0-3.0-1.48","","","Neither","n","true"
"null","<div style=""font-size:60px;"">+</div>","null","html-keyboard-response","101","253684","0.0-3.0-0.49","","fixation","","",""
"3505","a_b montage/ab_098.jpg","66","image-keyboard-response","102","257190","0.0-3.0-1.49","","","Update","b","true"
"null","<div style=""font-size:60px;"">+</div>","null","html-keyboard-response","103","257692","0.0-3.0-0.50","","fixation","","",""
"3849","a_b montage/ab_084.jpg","76","image-keyboard-response","104","261542","0.0-3.0-1.50","","","Repeat","l","true"
"null","<div style=""font-size:60px;"">+</div>","null","html-keyboard-response","105","262049","0.0-3.0-0.51","","fixation","","",""
"2920","a_b montage/ab_177.jpg","78","image-keyboard-response","106","264972","0.0-3.0-1.51","","","Set_2_Only","l","false"
"null","<div style=""font-size:60px;"">+</div>","null","html-keyboard-response","107","265475","0.0-3.0-0.52","","fixation","","",""
"5024","a_b montage/ab_111.jpg","82","image-keyboard-response","108","270501","0.0-3.0-1.52","","","Update","b","false"
"null","<div style=""font-size:60px;"">+</div>","null","html-keyboard-response","109","271002","0.0-3.0-0.53","","fixation","","",""
"4362","a_b montage/ab_090.jpg","76","image-keyboard-response","110","275365","0.0-3.0-1.53","","","Repeat","l","true"
"null","<div style=""font-size:60px;"">+</div>","null","html-keyboard-response","111","275867","0.0-3.0-0.54","","fixation","","",""
"3987","b_a montage/ba_012.jpg","66","image-keyboard-response","112","279856","0.0-3.0-1.54","","","Set_1_Only","r","false"
"null","<div style=""font-size:60px;"">+</div>","null","html-keyboard-response","113","280357","0.0-3.0-0.55","","fixation","","",""
"3733","b_a montage/ba_039.jpg","66","image-keyboard-response","114","284091","0.0-3.0-1.55","","","Repeat","r","false"
"null","<div style=""font-size:60px;"">+</div>","null","html-keyboard-response","115","284593","0.0-3.0-0.56","","fixation","","",""
"2873","a_b montage/ab_125.jpg","76","image-keyboard-response","116","287467","0.0-3.0-1.56","","","Update","b","false"
"null","<div style=""font-size:60px;"">+</div>","null","html-keyboard-response","117","287968","0.0-3.0-0.57","","fixation","","",""
"2832","b_a montage/ba_172.jpg","76","image-keyboard-response","118","290803","0.0-3.0-1.57","","","Set_2_Only","r","false"
"null","<div style=""font-size:60px;"">+</div>","null","html-keyboard-response","119","291305","0.0-3.0-0.58","","fixation","","",""
"2776","b_a montage/ba_046.jpg","66","image-keyboard-response","120","294083","0.0-3.0-1.58","","","Repeat","r","false"
"null","<div style=""font-size:60px;"">+</div>","null","html-keyboard-response","121","294585","0.0-3.0-0.59","","fixation","","",""
"2872","b_a montage/ba_004.jpg","76","image-keyboard-response","122","297458","0.0-3.0-1.59","","","Set_1_Only","r","false"
"null","<div style=""font-size:60px;"">+</div>","null","html-keyboard-response","123","297960","0.0-3.0-0.60","","fixation","","",""
"3648","b_a montage/ba_062.jpg","82","image-keyboard-response","124","301610","0.0-3.0-1.60","","","Repeat","r","true"
"null","<div style=""font-size:60px;"">+</div>","null","html-keyboard-response","125","302112","0.0-3.0-0.61","","fixation","","",""
"4003","b_a montage/ba_166.jpg","82","image-keyboard-response","126","306117","0.0-3.0-1.61","","","Set_2_Only","r","true"
"null","<div style=""font-size:60px;"">+</div>","null","html-keyboard-response","127","306618","0.0-3.0-0.62","","fixation","","",""
"2432","a_b montage/ab_148.jpg","82","image-keyboard-response","128","309053","0.0-3.0-1.62","","","Update","b","false"
"null","<div style=""font-size:60px;"">+</div>","null","html-keyboard-response","129","309554","0.0-3.0-0.63","","fixation","","",""
"3381","a_b montage/ab_108.jpg","76","image-keyboard-response","130","312937","0.0-3.0-1.63","","","Update","b","false"
"null","<div style=""font-size:60px;"">+</div>","null","html-keyboard-response","131","313439","0.0-3.0-0.64","","fixation","","",""
"2792","a_b new/ab_010.jpg","78","image-keyboard-response","132","316232","0.0-3.0-1.64","","","Neither","n","true"
"null","<div style=""font-size:60px;"">+</div>","null","html-keyboard-response","133","316734","0.0-3.0-0.65","","fixation","","",""
"3072","b_a montage/ba_011.jpg","76","image-keyboard-response","134","319808","0.0-3.0-1.65","","","Set_1_Only","r","false"
"null","<div style=""font-size:60px;"">+</div>","null","html-keyboard-response","135","320310","0.0-3.0-0.66","","fixation","","",""
"3517","a_b montage/ab_180.jpg","78","image-keyboard-response","136","323829","0.0-3.0-1.66","","","Set_2_Only","l","false"
"null","<div style=""font-size:60px;"">+</div>","null","html-keyboard-response","137","324331","0.0-3.0-0.67","","fixation","","",""
"3927","b_a montage/ba_015.jpg","78","image-keyboard-response","138","328261","0.0-3.0-1.67","","","Set_1_Only","r","false"
"null","<div style=""font-size:60px;"">+</div>","null","html-keyboard-response","139","328762","0.0-3.0-0.68","","fixation","","",""
"2938","b_a montage/ba_058.jpg","82","image-keyboard-response","140","331701","0.0-3.0-1.68","","","Repeat","r","true"
"null","<div style=""font-size:60px;"">+</div>","null","html-keyboard-response","141","332202","0.0-3.0-0.69","","fixation","","",""
"3417","a_b montage/ab_154.jpg","76","image-keyboard-response","142","335620","0.0-3.0-1.69","","","Update","b","false"
"null","<div style=""font-size:60px;"">+</div>","null","html-keyboard-response","143","336122","0.0-3.0-0.70","","fixation","","",""
"3385","a_b montage/ab_112.jpg","78","image-keyboard-response","144","339508","0.0-3.0-1.70","","","Update","b","false"
"null","<div style=""font-size:60px;"">+</div>","null","html-keyboard-response","145","340009","0.0-3.0-0.71","","fixation","","",""
"2679","a_b montage/ab_183.jpg","78","image-keyboard-response","146","342690","0.0-3.0-1.71","","","Set_2_Only","l","false"
"null","<div style=""font-size:60px;"">+</div>","null","html-keyboard-response","147","343192","0.0-3.0-0.72","","fixation","","",""
"2144","a_b montage/ab_192.jpg","78","image-keyboard-response","148","345337","0.0-3.0-1.72","","","Set_2_Only","l","false"
"null","<div style=""font-size:60px;"">+</div>","null","html-keyboard-response","149","345838","0.0-3.0-0.73","","fixation","","",""
"3265","a_b montage/ab_113.jpg","76","image-keyboard-response","150","349106","0.0-3.0-1.73","","","Update","b","false"
"null","<div style=""font-size:60px;"">+</div>","null","html-keyboard-response","151","349606","0.0-3.0-0.74","","fixation","","",""
"4394","b_a montage/ba_037.jpg","76","image-keyboard-response","152","354002","0.0-3.0-1.74","","","Repeat","r","false"
"null","<div style=""font-size:60px;"">+</div>","null","html-keyboard-response","153","354506","0.0-3.0-0.75","","fixation","","",""
"2894","a_b montage/ab_019.jpg","78","image-keyboard-response","154","357402","0.0-3.0-1.75","","","Set_1_Only","l","false"
"null","<div style=""font-size:60px;"">+</div>","null","html-keyboard-response","155","357904","0.0-3.0-0.76","","fixation","","",""
"1360","a_b montage/ab_018.jpg","78","image-keyboard-response","156","359266","0.0-3.0-1.76","","","Set_1_Only","l","false"
"null","<div style=""font-size:60px;"">+</div>","null","html-keyboard-response","157","359768","0.0-3.0-0.77","","fixation","","",""
"2928","a_b montage/ab_085.jpg","76","image-keyboard-response","158","362698","0.0-3.0-1.77","","","Repeat","l","true"
"null","<div style=""font-size:60px;"">+</div>","null","html-keyboard-response","159","363200","0.0-3.0-0.78","","fixation","","",""
"4118","b_a montage/ba_034.jpg","76","image-keyboard-response","160","367319","0.0-3.0-1.78","","","Repeat","r","false"
"null","<div style=""font-size:60px;"">+</div>","null","html-keyboard-response","161","367821","0.0-3.0-0.79","","fixation","","",""
"4163","a_b montage/ab_117.jpg","76","image-keyboard-response","162","371986","0.0-3.0-1.79","","","Update","b","false"
"null","<div style=""font-size:60px;"">+</div>","null","html-keyboard-response","163","372488","0.0-3.0-0.80","","fixation","","",""
"4308","a_b montage/ab_082.jpg","82","image-keyboard-response","164","376797","0.0-3.0-1.80","","","Repeat","l","false"
"null","<div style=""font-size:60px;"">+</div>","null","html-keyboard-response","165","377299","0.0-3.0-0.81","","fixation","","",""
"3688","a_b montage/ab_092.jpg","82","image-keyboard-response","166","380989","0.0-3.0-1.81","","","Repeat","l","false"
"null","<div style=""font-size:60px;"">+</div>","null","html-keyboard-response","167","381490","0.0-3.0-0.82","","fixation","","",""
"4206","b_a montage/ba_060.jpg","66","image-keyboard-response","168","385699","0.0-3.0-1.82","","","Repeat","r","false"
"null","<div style=""font-size:60px;"">+</div>","null","html-keyboard-response","169","386201","0.0-3.0-0.83","","fixation","","",""
"2872","b_a montage/ba_061.jpg","66","image-keyboard-response","170","389075","0.0-3.0-1.83","","","Repeat","r","false"
"null","<div style=""font-size:60px;"">+</div>","null","html-keyboard-response","171","389576","0.0-3.0-0.84","","fixation","","",""
"2873","a_b montage/ab_158.jpg","66","image-keyboard-response","172","392451","0.0-3.0-1.84","","","Update","b","true"
"null","<div style=""font-size:60px;"">+</div>","null","html-keyboard-response","173","392953","0.0-3.0-0.85","","fixation","","",""
"4208","a_b montage/ab_075.jpg","76","image-keyboard-response","174","397162","0.0-3.0-1.85","","","Repeat","l","true"
"null","<div style=""font-size:60px;"">+</div>","null","html-keyboard-response","175","397664","0.0-3.0-0.86","","fixation","","",""
"3393","a_b montage/ab_086.jpg","76","image-keyboard-response","176","401058","0.0-3.0-1.86","","","Repeat","l","true"
"null","<div style=""font-size:60px;"">+</div>","null","html-keyboard-response","177","401560","0.0-3.0-0.87","","fixation","","",""
"3987","a_b montage/ab_190.jpg","82","image-keyboard-response","178","405550","0.0-3.0-1.87","","","Set_2_Only","l","false"
"null","<div style=""font-size:60px;"">+</div>","null","html-keyboard-response","179","406052","0.0-3.0-0.88","","fixation","","",""
"3804","b_a montage/ba_055.jpg","66","image-keyboard-response","180","409858","0.0-3.0-1.88","","","Repeat","r","false"
"null","<div style=""font-size:60px;"">+</div>","null","html-keyboard-response","181","410360","0.0-3.0-0.89","","fixation","","",""
"1815","a_b montage/ab_135.jpg","66","image-keyboard-response","182","412177","0.0-3.0-1.89","","","Update","b","true"
"null","<div style=""font-size:60px;"">+</div>","null","html-keyboard-response","183","412679","0.0-3.0-0.90","","fixation","","",""
"4064","a_b montage/ab_137.jpg","78","image-keyboard-response","184","416745","0.0-3.0-1.90","","","Update","b","false"
"null","<div style=""font-size:60px;"">+</div>","null","html-keyboard-response","185","417247","0.0-3.0-0.91","","fixation","","",""
"1512","b_a montage/ba_006.jpg","78","image-keyboard-response","186","418761","0.0-3.0-1.91","","","Set_1_Only","r","false"
"null","<div style=""font-size:60px;"">+</div>","null","html-keyboard-response","187","419263","0.0-3.0-0.92","","fixation","","",""
"3712","b_a montage/ba_170.jpg","82","image-keyboard-response","188","422977","0.0-3.0-1.92","","","Set_2_Only","r","true"
"null","<div style=""font-size:60px;"">+</div>","null","html-keyboard-response","189","423479","0.0-3.0-0.93","","fixation","","",""
"2912","b_a montage/ba_051.jpg","82","image-keyboard-response","190","426392","0.0-3.0-1.93","","","Repeat","r","true"
"null","<div style=""font-size:60px;"">+</div>","null","html-keyboard-response","191","426894","0.0-3.0-0.94","","fixation","","",""
"2880","a_b montage/ab_128.jpg","76","image-keyboard-response","192","429776","0.0-3.0-1.94","","","Update","b","false"
"null","<div style=""font-size:60px;"">+</div>","null","html-keyboard-response","193","430277","0.0-3.0-0.95","","fixation","","",""
"3298","a_b montage/ab_145.jpg","76","image-keyboard-response","194","433577","0.0-3.0-1.95","","","Update","b","false"
"null","<div style=""font-size:60px;"">+</div>","null","html-keyboard-response","195","434079","0.0-3.0-0.96","","fixation","","",""
"3911","a_b montage/ab_031.jpg","78","image-keyboard-response","196","437992","0.0-3.0-1.96","","","Set_1_Only","l","false"
"null","<div style=""font-size:60px;"">+</div>","null","html-keyboard-response","197","438493","0.0-3.0-0.97","","fixation","","",""
"3577","a_b montage/ab_071.jpg","82","image-keyboard-response","198","442072","0.0-3.0-1.97","","","Repeat","l","false"
"null","<div style=""font-size:60px;"">+</div>","null","html-keyboard-response","199","442574","0.0-3.0-0.98","","fixation","","",""
"3079","b_a montage/ba_120.jpg","66","image-keyboard-response","200","445656","0.0-3.0-1.98","","","Update","b","true"
"null","<div style=""font-size:60px;"">+</div>","null","html-keyboard-response","201","446157","0.0-3.0-0.99","","fixation","","",""
"3474","b_a montage/ba_143.jpg","76","image-keyboard-response","202","449632","0.0-3.0-1.99","","","Update","b","false"
"null","<div style=""font-size:60px;"">+</div>","null","html-keyboard-response","203","450134","0.0-3.0-0.100","","fixation","","",""
"3582","b_a montage/ba_146.jpg","76","image-keyboard-response","204","453718","0.0-3.0-1.100","","","Update","b","false"
"null","<div style=""font-size:60px;"">+</div>","null","html-keyboard-response","205","454220","0.0-3.0-0.101","","fixation","","",""
"1744","a_b new/ab_015.jpg","78","image-keyboard-response","206","455966","0.0-3.0-1.101","","","Neither","n","true"
"null","<div style=""font-size:60px;"">+</div>","null","html-keyboard-response","207","456468","0.0-3.0-0.102","","fixation","","",""
"2896","b_a montage/ba_097.jpg","76","image-keyboard-response","208","459366","0.0-3.0-1.102","","","Update","b","false"
"null","<div style=""font-size:60px;"">+</div>","null","html-keyboard-response","209","459867","0.0-3.0-0.103","","fixation","","",""
"2120","b_a montage/ba_036.jpg","66","image-keyboard-response","210","461989","0.0-3.0-1.103","","","Repeat","r","false"
"null","<div style=""font-size:60px;"">+</div>","null","html-keyboard-response","211","462491","0.0-3.0-0.104","","fixation","","",""
"3136","b_a montage/ba_136.jpg","76","image-keyboard-response","212","465629","0.0-3.0-1.104","","","Update","b","false"
"null","<div style=""font-size:60px;"">+</div>","null","html-keyboard-response","213","466131","0.0-3.0-0.105","","fixation","","",""
"3804","a_b montage/ab_073.jpg","66","image-keyboard-response","214","469937","0.0-3.0-1.105","","","Repeat","l","false"
"null","<div style=""font-size:60px;"">+</div>","null","html-keyboard-response","215","470439","0.0-3.0-0.106","","fixation","","",""
"3976","b_a montage/ba_133.jpg","82","image-keyboard-response","216","474418","0.0-3.0-1.106","","","Update","b","false"
"null","<div style=""font-size:60px;"">+</div>","null","html-keyboard-response","217","474920","0.0-3.0-0.107","","fixation","","",""
"3306","b_a montage/ba_045.jpg","82","image-keyboard-response","218","478228","0.0-3.0-1.107","","","Repeat","r","true"
"null","<div style=""font-size:60px;"">+</div>","null","html-keyboard-response","219","478730","0.0-3.0-0.108","","fixation","","",""
"4054","a_b montage/ab_081.jpg","66","image-keyboard-response","220","482785","0.0-3.0-1.108","","","Repeat","l","false"
"null","<div style=""font-size:60px;"">+</div>","null","html-keyboard-response","221","483287","0.0-3.0-0.109","","fixation","","",""
"4462","a_b montage/ab_089.jpg","76","image-keyboard-response","222","487750","0.0-3.0-1.109","","","Repeat","l","true"
"null","<div style=""font-size:60px;"">+</div>","null","html-keyboard-response","223","488443","0.0-3.0-0.110","","fixation","","",""
"2874","a_b new/ab_005.jpg","78","image-keyboard-response","224","491318","0.0-3.0-1.110","","","Neither","n","true"
"null","<div style=""font-size:60px;"">+</div>","null","html-keyboard-response","225","491820","0.0-3.0-0.111","","fixation","","",""
"2427","b_a montage/ba_053.jpg","78","image-keyboard-response","226","494249","0.0-3.0-1.111","","","Repeat","r","false"
"null","<div style=""font-size:60px;"">+</div>","null","html-keyboard-response","227","494751","0.0-3.0-0.112","","fixation","","",""
"4612","b_a montage/ba_119.jpg","66","image-keyboard-response","228","499365","0.0-3.0-1.112","","","Update","b","true"
"null","<div style=""font-size:60px;"">+</div>","null","html-keyboard-response","229","499866","0.0-3.0-0.113","","fixation","","",""
"1793","b_a montage/ba_171.jpg","78","image-keyboard-response","230","501661","0.0-3.0-1.113","","","Set_2_Only","r","false"
"null","<div style=""font-size:60px;"">+</div>","null","html-keyboard-response","231","502163","0.0-3.0-0.114","","fixation","","",""
"4337","b_a montage/ba_110.jpg","76","image-keyboard-response","232","506501","0.0-3.0-1.114","","","Update","b","false"
"null","<div style=""font-size:60px;"">+</div>","null","html-keyboard-response","233","507003","0.0-3.0-0.115","","fixation","","",""
"3410","b_a montage/ba_116.jpg","76","image-keyboard-response","234","510415","0.0-3.0-1.115","","","Update","b","false"
"null","<div style=""font-size:60px;"">+</div>","null","html-keyboard-response","235","510917","0.0-3.0-0.116","","fixation","","",""
"3851","a_b montage/ab_024.jpg","76","image-keyboard-response","236","514770","0.0-3.0-1.116","","","Set_1_Only","l","true"
"null","<div style=""font-size:60px;"">+</div>","null","html-keyboard-response","237","515272","0.0-3.0-0.117","","fixation","","",""
"3576","a_b montage/ab_026.jpg","76","image-keyboard-response","238","518850","0.0-3.0-1.117","","","Set_1_Only","l","true"
"null","<div style=""font-size:60px;"">+</div>","null","html-keyboard-response","239","519352","0.0-3.0-0.118","","fixation","","",""
"4383","b_a montage/ba_052.jpg","76","image-keyboard-response","240","523736","0.0-3.0-1.118","","","Repeat","r","false"
"null","<div style=""font-size:60px;"">+</div>","null","html-keyboard-response","241","524238","0.0-3.0-0.119","","fixation","","",""
"2512","a_b montage/ab_094.jpg","76","image-keyboard-response","242","526752","0.0-3.0-1.119","","","Repeat","l","true"
"null","<div style=""font-size:60px;"">+</div>","null","html-keyboard-response","243","527254","0.0-3.0-0.120","","fixation","","",""
"4750","b_a montage/ba_101.jpg","66","image-keyboard-response","244","532006","0.0-3.0-1.120","","","Update","b","true"
"null","<div style=""font-size:60px;"">+</div>","null","html-keyboard-response","245","532507","0.0-3.0-0.121","","fixation","","",""
"2625","b_a montage/ba_152.jpg","82","image-keyboard-response","246","535134","0.0-3.0-1.121","","","Update","b","false"
"null","<div style=""font-size:60px;"">+</div>","null","html-keyboard-response","247","535635","0.0-3.0-0.122","","fixation","","",""
"4363","a_b montage/ab_093.jpg","66","image-keyboard-response","248","540001","0.0-3.0-1.122","","","Repeat","l","false"
"null","<div style=""font-size:60px;"">+</div>","null","html-keyboard-response","249","540503","0.0-3.0-0.123","","fixation","","",""
"2136","a_b new/ab_007.jpg","78","image-keyboard-response","250","542640","0.0-3.0-1.123","","","Neither","n","true"
"null","<div style=""font-size:60px;"">+</div>","null","html-keyboard-response","251","543142","0.0-3.0-0.124","","fixation","","",""
"1752","b_a montage/ba_102.jpg","78","image-keyboard-response","252","544896","0.0-3.0-1.124","","","Update","b","false"
"null","<div style=""font-size:60px;"">+</div>","null","html-keyboard-response","253","545398","0.0-3.0-0.125","","fixation","","",""
"1344","a_b montage/ab_021.jpg","78","image-keyboard-response","254","546744","0.0-3.0-1.125","","","Set_1_Only","l","false"
"null","<div style=""font-size:60px;"">+</div>","null","html-keyboard-response","255","547245","0.0-3.0-0.126","","fixation","","",""
"3001","a_b montage/ab_065.jpg","76","image-keyboard-response","256","550248","0.0-3.0-1.126","","","Repeat","l","true"
"null","<div style=""font-size:60px;"">+</div>","null","html-keyboard-response","257","550749","0.0-3.0-0.127","","fixation","","",""
"4359","a_b new/ab_002.jpg","78","image-keyboard-response","258","555110","0.0-3.0-1.127","","","Neither","n","true"
"null","<div style=""font-size:60px;"">+</div>","null","html-keyboard-response","259","555612","0.0-3.0-0.128","","fixation","","",""
"4225","b_a montage/ba_057.jpg","82","image-keyboard-response","260","559838","0.0-3.0-1.128","","","Repeat","r","true"
"null","<div style=""font-size:60px;"">+</div>","null","html-keyboard-response","261","560340","0.0-3.0-0.129","","fixation","","",""
"3167","b_a montage/ba_167.jpg","82","image-keyboard-response","262","563508","0.0-3.0-1.129","","","Set_2_Only","r","true"
"null","<div style=""font-size:60px;"">+</div>","null","html-keyboard-response","263","564010","0.0-3.0-0.130","","fixation","","",""
"4626","b_a montage/ba_160.jpg","76","image-keyboard-response","264","568638","0.0-3.0-1.130","","","Update","b","false"
"null","<div style=""font-size:60px;"">+</div>","null","html-keyboard-response","265","569140","0.0-3.0-0.131","","fixation","","",""
"2126","b_a montage/ba_005.jpg","78","image-keyboard-response","266","571268","0.0-3.0-1.131","","","Set_1_Only","r","false"
"null","<div style=""font-size:60px;"">+</div>","null","html-keyboard-response","267","571770","0.0-3.0-0.132","","fixation","","",""
"3760","b_a montage/ba_140.jpg","82","image-keyboard-response","268","575531","0.0-3.0-1.132","","","Update","b","false"
"null","<div style=""font-size:60px;"">+</div>","null","html-keyboard-response","269","576033","0.0-3.0-0.133","","fixation","","",""
"1696","b_a new/ba_006.jpg","78","image-keyboard-response","270","577731","0.0-3.0-1.133","","","Neither","n","true"
"null","<div style=""font-size:60px;"">+</div>","null","html-keyboard-response","271","578232","0.0-3.0-0.134","","fixation","","",""
"2977","b_a montage/ba_123.jpg","76","image-keyboard-response","272","581212","0.0-3.0-1.134","","","Update","b","false"
"null","<div style=""font-size:60px;"">+</div>","null","html-keyboard-response","273","581714","0.0-3.0-0.135","","fixation","","",""
"2993","b_a montage/ba_033.jpg","82","image-keyboard-response","274","584708","0.0-3.0-1.135","","","Repeat","r","true"
"null","<div style=""font-size:60px;"">+</div>","null","html-keyboard-response","275","585210","0.0-3.0-0.136","","fixation","","",""
"2992","a_b montage/ab_077.jpg","76","image-keyboard-response","276","588205","0.0-3.0-1.136","","","Repeat","l","true"
"null","<div style=""font-size:60px;"">+</div>","null","html-keyboard-response","277","588707","0.0-3.0-0.137","","fixation","","",""
"1928","a_b montage/ab_032.jpg","78","image-keyboard-response","278","590637","0.0-3.0-1.137","","","Set_1_Only","l","false"
"null","<div style=""font-size:60px;"">+</div>","null","html-keyboard-response","279","591139","0.0-3.0-0.138","","fixation","","",""
"2784","b_a montage/ba_156.jpg","76","image-keyboard-response","280","593925","0.0-3.0-1.138","","","Update","b","false"
"null","<div style=""font-size:60px;"">+</div>","null","html-keyboard-response","281","594427","0.0-3.0-0.139","","fixation","","",""
"1760","a_b montage/ab_022.jpg","78","image-keyboard-response","282","596189","0.0-3.0-1.139","","","Set_1_Only","l","false"
"null","<div style=""font-size:60px;"">+</div>","null","html-keyboard-response","283","596691","0.0-3.0-0.140","","fixation","","",""
"2600","b_a montage/ba_114.jpg","82","image-keyboard-response","284","599292","0.0-3.0-1.140","","","Update","b","false"
"null","<div style=""font-size:60px;"">+</div>","null","html-keyboard-response","285","599794","0.0-3.0-0.141","","fixation","","",""
"3530","b_a new/ba_013.jpg","66","image-keyboard-response","286","603326","0.0-3.0-1.141","","","Neither","n","false"
"null","<div style=""font-size:60px;"">+</div>","null","html-keyboard-response","287","603828","0.0-3.0-0.142","","fixation","","",""
"1648","a_b montage/ab_023.jpg","78","image-keyboard-response","288","605478","0.0-3.0-1.142","","","Set_1_Only","l","false"
"null","<div style=""font-size:60px;"">+</div>","null","html-keyboard-response","289","605980","0.0-3.0-0.143","","fixation","","",""
"2672","a_b montage/ab_087.jpg","78","image-keyboard-response","290","608654","0.0-3.0-1.143","","","Repeat","l","false"
"null","<div style=""font-size:60px;"">+</div>","null","html-keyboard-response","291","609156","0.0-3.0-0.144","","fixation","","",""
"1303","b_a montage/ba_155.jpg","78","image-keyboard-response","292","610462","0.0-3.0-1.144","","","Update","b","false"
"null","<div style=""font-size:60px;"">+</div>","null","html-keyboard-response","293","610964","0.0-3.0-0.145","","fixation","","",""
"1144","b_a montage/ba_002.jpg","78","image-keyboard-response","294","612110","0.0-3.0-1.145","","","Set_1_Only","r","false"
"null","<div style=""font-size:60px;"">+</div>","null","html-keyboard-response","295","612612","0.0-3.0-0.146","","fixation","","",""
"1265","b_a montage/ba_161.jpg","78","image-keyboard-response","296","613878","0.0-3.0-1.146","","","Set_2_Only","r","false"
"null","<div style=""font-size:60px;"">+</div>","null","html-keyboard-response","297","614380","0.0-3.0-0.147","","fixation","","",""
"993","a_b montage/ab_029.jpg","78","image-keyboard-response","298","615374","0.0-3.0-1.147","","","Set_1_Only","l","false"
"null","<div style=""font-size:60px;"">+</div>","null","html-keyboard-response","299","615876","0.0-3.0-0.148","","fixation","","",""
"1200","a_b montage/ab_030.jpg","78","image-keyboard-response","300","617078","0.0-3.0-1.148","","","Set_1_Only","l","false"
"null","<div style=""font-size:60px;"">+</div>","null","html-keyboard-response","301","617580","0.0-3.0-0.149","","fixation","","",""
"2361","b_a new/ba_004.jpg","78","image-keyboard-response","302","619942","0.0-3.0-1.149","","","Neither","n","true"
"null","<div style=""font-size:60px;"">+</div>","null","html-keyboard-response","303","620444","0.0-3.0-0.150","","fixation","","",""
"2872","b_a montage/ba_049.jpg","76","image-keyboard-response","304","623318","0.0-3.0-1.150","","","Repeat","r","false"
"null","<div style=""font-size:60px;"">+</div>","null","html-keyboard-response","305","623819","0.0-3.0-0.151","","fixation","","",""
"1753","a_b montage/ab_027.jpg","78","image-keyboard-response","306","625574","0.0-3.0-1.151","","","Set_1_Only","l","false"
"null","<div style=""font-size:60px;"">+</div>","null","html-keyboard-response","307","626075","0.0-3.0-0.152","","fixation","","",""
"3001","b_a montage/ba_008.jpg","82","image-keyboard-response","308","629078","0.0-3.0-1.152","","","Set_1_Only","r","true"
"null","<div style=""font-size:60px;"">+</div>","null","html-keyboard-response","309","629580","0.0-3.0-0.153","","fixation","","",""
"2312","b_a montage/ba_048.jpg","66","image-keyboard-response","310","631893","0.0-3.0-1.153","","","Repeat","r","false"
"null","<div style=""font-size:60px;"">+</div>","null","html-keyboard-response","311","632395","0.0-3.0-0.154","","fixation","","",""
"4001","a_b montage/ab_191.jpg","78","image-keyboard-response","312","636399","0.0-3.0-1.154","","","Set_2_Only","l","false"
"null","<div style=""font-size:60px;"">+</div>","null","html-keyboard-response","313","636901","0.0-3.0-0.155","","fixation","","",""
"3568","a_b montage/ab_186.jpg","82","image-keyboard-response","314","640471","0.0-3.0-1.155","","","Set_2_Only","l","false"
"null","<div style=""font-size:60px;"">+</div>","null","html-keyboard-response","315","640973","0.0-3.0-0.156","","fixation","","",""
"3995","b_a montage/ba_157.jpg","76","image-keyboard-response","316","644970","0.0-3.0-1.156","","","Update","b","false"
"null","<div style=""font-size:60px;"">+</div>","null","html-keyboard-response","317","645473","0.0-3.0-0.157","","fixation","","",""
"3542","a_b montage/ab_072.jpg","66","image-keyboard-response","318","649016","0.0-3.0-1.157","","","Repeat","l","false"
"null","<div style=""font-size:60px;"">+</div>","null","html-keyboard-response","319","649517","0.0-3.0-0.158","","fixation","","",""
"2018","b_a montage/ba_173.jpg","66","image-keyboard-response","320","651536","0.0-3.0-1.158","","","Set_2_Only","r","false"
"null","<div style=""font-size:60px;"">+</div>","null","html-keyboard-response","321","652038","0.0-3.0-0.159","","fixation","","",""
"2305","a_b montage/ab_187.jpg","66","image-keyboard-response","322","654344","0.0-3.0-1.159","","","Set_2_Only","l","false"
"null","<div style=""font-size:60px;"">+</div>","null","html-keyboard-response","323","654846","0.0-3.0-0.160","","fixation","","",""
"1856","b_a montage/ba_016.jpg","78","image-keyboard-response","324","656703","0.0-3.0-1.160","","","Set_1_Only","r","false"
"null","<div style=""font-size:60px;"">+</div>","null","html-keyboard-response","325","657205","0.0-3.0-0.161","","fixation","","",""
"2104","a_b montage/ab_095.jpg","78","image-keyboard-response","326","659311","0.0-3.0-1.161","","","Repeat","l","false"
"null","<div style=""font-size:60px;"">+</div>","null","html-keyboard-response","327","659813","0.0-3.0-0.162","","fixation","","",""
"1122","a_b montage/ab_178.jpg","78","image-keyboard-response","328","660936","0.0-3.0-1.162","","","Set_2_Only","l","false"
"null","<div style=""font-size:60px;"">+</div>","null","html-keyboard-response","329","661438","0.0-3.0-0.163","","fixation","","",""
"816","b_a new/ba_014.jpg","78","image-keyboard-response","330","662256","0.0-3.0-1.163","","","Neither","n","true"
"null","<div style=""font-size:60px;"">+</div>","null","html-keyboard-response","331","662758","0.0-3.0-0.164","","fixation","","",""
"1352","b_a montage/ba_126.jpg","78","image-keyboard-response","332","664111","0.0-3.0-1.164","","","Update","b","false"
"null","<div style=""font-size:60px;"">+</div>","null","html-keyboard-response","333","664613","0.0-3.0-0.165","","fixation","","",""
"3193","b_a montage/ba_134.jpg","78","image-keyboard-response","334","667808","0.0-3.0-1.165","","","Update","b","false"
"null","<div style=""font-size:60px;"">+</div>","null","html-keyboard-response","335","668310","0.0-3.0-0.166","","fixation","","",""
"1080","b_a montage/ba_162.jpg","78","image-keyboard-response","336","669392","0.0-3.0-1.166","","","Set_2_Only","r","false"
"null","<div style=""font-size:60px;"">+</div>","null","html-keyboard-response","337","669894","0.0-3.0-0.167","","fixation","","",""
"1136","b_a montage/ba_003.jpg","78","image-keyboard-response","338","671031","0.0-3.0-1.167","","","Set_1_Only","r","false"
"null","<div style=""font-size:60px;"">+</div>","null","html-keyboard-response","339","671534","0.0-3.0-0.168","","fixation","","",""
"1359","b_a montage/ba_007.jpg","78","image-keyboard-response","340","672895","0.0-3.0-1.168","","","Set_1_Only","r","false"
"null","<div style=""font-size:60px;"">+</div>","null","html-keyboard-response","341","673397","0.0-3.0-0.169","","fixation","","",""
"3737","b_a montage/ba_063.jpg","82","image-keyboard-response","342","677135","0.0-3.0-1.169","","","Repeat","r","true"
"null","<div style=""font-size:60px;"">+</div>","null","html-keyboard-response","343","677637","0.0-3.0-0.170","","fixation","","",""
"4209","b_a montage/ba_132.jpg","66","image-keyboard-response","344","681849","0.0-3.0-1.170","","","Update","b","true"
"null","<div style=""font-size:60px;"">+</div>","null","html-keyboard-response","345","682352","0.0-3.0-0.171","","fixation","","",""
"2164","a_b montage/ab_096.jpg","78","image-keyboard-response","346","684519","0.0-3.0-1.171","","","Repeat","l","false"
"null","<div style=""font-size:60px;"">+</div>","null","html-keyboard-response","347","685020","0.0-3.0-0.172","","fixation","","",""
"2825","b_a montage/ba_014.jpg","78","image-keyboard-response","348","687847","0.0-3.0-1.172","","","Set_1_Only","r","false"
"null","<div style=""font-size:60px;"">+</div>","null","html-keyboard-response","349","688349","0.0-3.0-0.173","","fixation","","",""
"962","b_a montage/ba_105.jpg","78","image-keyboard-response","350","689312","0.0-3.0-1.173","","","Update","b","false"
"null","<div style=""font-size:60px;"">+</div>","null","html-keyboard-response","351","689813","0.0-3.0-0.174","","fixation","","",""
"2407","b_a montage/ba_054.jpg","66","image-keyboard-response","352","692223","0.0-3.0-1.174","","","Repeat","r","false"
"null","<div style=""font-size:60px;"">+</div>","null","html-keyboard-response","353","692725","0.0-3.0-0.175","","fixation","","",""
"2872","b_a montage/ba_042.jpg","78","image-keyboard-response","354","695599","0.0-3.0-1.175","","","Repeat","r","false"
"null","<div style=""font-size:60px;"">+</div>","null","html-keyboard-response","355","696100","0.0-3.0-0.176","","fixation","","",""
"3385","a_b montage/ab_074.jpg","76","image-keyboard-response","356","699486","0.0-3.0-1.176","","","Repeat","l","true"
"null","<div style=""font-size:60px;"">+</div>","null","html-keyboard-response","357","699989","0.0-3.0-0.177","","fixation","","",""
"2472","a_b montage/ab_083.jpg","82","image-keyboard-response","358","702462","0.0-3.0-1.177","","","Repeat","l","false"
"null","<div style=""font-size:60px;"">+</div>","null","html-keyboard-response","359","702964","0.0-3.0-0.178","","fixation","","",""
"3481","b_a montage/ba_144.jpg","66","image-keyboard-response","360","706446","0.0-3.0-1.178","","","Update","b","true"
"null","<div style=""font-size:60px;"">+</div>","null","html-keyboard-response","361","706948","0.0-3.0-0.179","","fixation","","",""
"2784","a_b montage/ab_078.jpg","76","image-keyboard-response","362","709734","0.0-3.0-1.179","","","Repeat","l","true"
"null","<div style=""font-size:60px;"">+</div>","null","html-keyboard-response","363","710236","0.0-3.0-0.180","","fixation","","",""
"2903","a_b montage/ab_184.jpg","78","image-keyboard-response","364","713142","0.0-3.0-1.180","","","Set_2_Only","l","false"
"null","<div style=""font-size:60px;"">+</div>","null","html-keyboard-response","365","713645","0.0-3.0-0.181","","fixation","","",""
"3376","b_a montage/ba_121.jpg","78","image-keyboard-response","366","717022","0.0-3.0-1.181","","","Update","b","false"
"null","<div style=""font-size:60px;"">+</div>","null","html-keyboard-response","367","717524","0.0-3.0-0.182","","fixation","","",""
"1185","b_a montage/ba_001.jpg","78","image-keyboard-response","368","718710","0.0-3.0-1.182","","","Set_1_Only","r","false"
"null","<div style=""font-size:60px;"">+</div>","null","html-keyboard-response","369","719212","0.0-3.0-0.183","","fixation","","",""
"4985","b_a montage/ba_106.jpg","76","image-keyboard-response","370","724199","0.0-3.0-1.183","","","Update","b","false"
"null","<div style=""font-size:60px;"">+</div>","null","html-keyboard-response","371","724702","0.0-3.0-0.184","","fixation","","",""
"3807","b_a montage/ba_122.jpg","66","image-keyboard-response","372","728511","0.0-3.0-1.184","","","Update","b","true"
"null","<div style=""font-size:60px;"">+</div>","null","html-keyboard-response","373","729013","0.0-3.0-0.185","","fixation","","",""
"2856","b_a montage/ba_064.jpg","78","image-keyboard-response","374","731870","0.0-3.0-1.185","","","Repeat","r","false"
"null","<div style=""font-size:60px;"">+</div>","null","html-keyboard-response","375","732371","0.0-3.0-0.186","","fixation","","",""
"1850","b_a montage/ba_059.jpg","78","image-keyboard-response","376","734222","0.0-3.0-1.186","","","Repeat","r","false"
"null","<div style=""font-size:60px;"">+</div>","null","html-keyboard-response","377","734723","0.0-3.0-0.187","","fixation","","",""
"2858","b_a montage/ba_175.jpg","82","image-keyboard-response","378","737582","0.0-3.0-1.187","","","Set_2_Only","r","true"
"null","<div style=""font-size:60px;"">+</div>","null","html-keyboard-response","379","738084","0.0-3.0-0.188","","fixation","","",""
"2032","b_a montage/ba_169.jpg","78","image-keyboard-response","380","740118","0.0-3.0-1.188","","","Set_2_Only","r","false"
"null","<div style=""font-size:60px;"">+</div>","null","html-keyboard-response","381","740620","0.0-3.0-0.189","","fixation","","",""
"3448","b_a montage/ba_151.jpg","76","image-keyboard-response","382","744070","0.0-3.0-1.189","","","Update","b","false"
"null","<div style=""font-size:60px;"">+</div>","null","html-keyboard-response","383","744571","0.0-3.0-0.190","","fixation","","",""
"2105","b_a montage/ba_010.jpg","78","image-keyboard-response","384","746678","0.0-3.0-1.190","","","Set_1_Only","r","false"
"null","<div style=""font-size:60px;"">+</div>","null","html-keyboard-response","385","747180","0.0-3.0-0.191","","fixation","","",""
"3640","b_a montage/ba_164.jpg","66","image-keyboard-response","386","750821","0.0-3.0-1.191","","","Set_2_Only","r","false"
"null","<div style=""font-size:60px;"">+</div>","null","html-keyboard-response","387","751323","0.0-3.0-0.192","","fixation","","",""
"2000","a_b montage/ab_070.jpg","66","image-keyboard-response","388","753326","0.0-3.0-1.192","","","Repeat","l","false"
"null","<div style=""font-size:60px;"">+</div>","null","html-keyboard-response","389","753828","0.0-3.0-0.193","","fixation","","",""
"3056","b_a montage/ba_044.jpg","82","image-keyboard-response","390","756885","0.0-3.0-1.193","","","Repeat","r","true"
"null","<div style=""font-size:60px;"">+</div>","null","html-keyboard-response","391","757387","0.0-3.0-0.194","","fixation","","",""
"2840","b_a montage/ba_035.jpg","76","image-keyboard-response","392","760229","0.0-3.0-1.194","","","Repeat","r","false"
"null","<div style=""font-size:60px;"">+</div>","null","html-keyboard-response","393","760735","0.0-3.0-0.195","","fixation","","",""
"3333","b_a montage/ba_040.jpg","82","image-keyboard-response","394","764070","0.0-3.0-1.195","","","Repeat","r","true"
"null","<div style=""font-size:60px;"">+</div>","null","html-keyboard-response","395","764572","0.0-3.0-0.196","","fixation","","",""
"3561","b_a montage/ba_124.jpg","82","image-keyboard-response","396","768135","0.0-3.0-1.196","","","Update","b","false"
"null","<div style=""font-size:60px;"">+</div>","null","html-keyboard-response","397","768637","0.0-3.0-0.197","","fixation","","",""
"2960","a_b montage/ab_025.jpg","76","image-keyboard-response","398","771599","0.0-3.0-1.197","","","Set_1_Only","l","true"
"null","<div style=""font-size:60px;"">+</div>","null","html-keyboard-response","399","772101","0.0-3.0-0.198","","fixation","","",""
"2880","b_a montage/ba_165.jpg","82","image-keyboard-response","400","774983","0.0-3.0-1.198","","","Set_2_Only","r","true"
"null","<div style=""font-size:60px;"">+</div>","null","html-keyboard-response","401","775485","0.0-3.0-0.199","","fixation","","",""
"5198","b_a montage/ba_138.jpg","82","image-keyboard-response","402","780685","0.0-3.0-1.199","","","Update","b","false"
"null","<div style=""font-size:60px;"">+</div>","null","html-keyboard-response","403","781187","0.0-3.0-0.200","","fixation","","",""
"3899","a_b montage/ab_028.jpg","82","image-keyboard-response","404","785089","0.0-3.0-1.200","","","Set_1_Only","l","false"
"null","<div style=""font-size:60px;"">+</div>","null","html-keyboard-response","405","785590","0.0-3.0-0.201","","fixation","","",""
"3654","a_b montage/ab_076.jpg","66","image-keyboard-response","406","789246","0.0-3.0-1.201","","","Repeat","l","false"
"null","<div style=""font-size:60px;"">+</div>","null","html-keyboard-response","407","789747","0.0-3.0-0.202","","fixation","","",""
"2171","b_a new/ba_012.jpg","78","image-keyboard-response","408","791920","0.0-3.0-1.202","","","Neither","n","true"
"null","<div style=""font-size:60px;"">+</div>","null","html-keyboard-response","409","792422","0.0-3.0-0.203","","fixation","","",""
"3872","a_b montage/ab_068.jpg","66","image-keyboard-response","410","796296","0.0-3.0-1.203","","","Repeat","l","false"
"null","<div style=""font-size:60px;"">+</div>","null","html-keyboard-response","411","796797","0.0-3.0-0.204","","fixation","","",""
"1760","b_a montage/ba_115.jpg","66","image-keyboard-response","412","798560","0.0-3.0-1.204","","","Update","b","true"
"null","<div style=""font-size:60px;"">+</div>","null","html-keyboard-response","413","799062","0.0-3.0-0.205","","fixation","","",""
"3040","b_a montage/ba_118.jpg","76","image-keyboard-response","414","802103","0.0-3.0-1.205","","","Update","b","false"
"null","<div style=""font-size:60px;"">+</div>","null","html-keyboard-response","415","802606","0.0-3.0-0.206","","fixation","","",""
"4256","a_b montage/ab_189.jpg","76","image-keyboard-response","416","806864","0.0-3.0-1.206","","","Set_2_Only","l","true"
"null","<div style=""font-size:60px;"">+</div>","null","html-keyboard-response","417","807366","0.0-3.0-0.207","","fixation","","",""
"3360","b_a new/ba_009.jpg","78","image-keyboard-response","418","810727","0.0-3.0-1.207","","","Neither","n","true"
