"rt","stimulus","key_press","trial_type","trial_index","time_elapsed","internal_node_id","responses","test_part","stim_type","correct_response","correct"
"6503","Press any key to begin.","78","html-keyboard-response","0","6509","0.0-0.0","","","","",""
"8991","","","survey-text","1","15512","0.0-1.0","{""Q0"":""\""Test128617\"""",""Q1"":""""}","","","",""
"14558","<p>For this phase you will see two similar images side by side on the screen I want you to tell us which of the items you have seen before in any of the previous sets of images. </p><p>If you have only seen the image on the left you will press the 'L' key on your keyboard.</p>If you have only seen the image on the right you will press the 'R' key on your keyboard.</p>If you have previously seen both of the images you will press the 'B' key on your keyboard.</p>If you have not seen either image you will press the 'N' key on your keyboard.</p><div style='width: 700px;'></div><p>Press any key to begin.</p>","74","html-keyboard-response","2","30082","0.0-2.0","","","","",""
"null","<div style=""font-size:60px;"">+</div>","null","html-keyboard-response","3","32605","0.0-3.0-0.0","","fixation","","",""
"3779","b_a montage/ba_038.jpg","76","image-keyboard-response","4","36394","0.0-3.0-1.0","","","Repeat","r","false"
"null","<div style=""font-size:60px;"">+</div>","null","html-keyboard-response","5","36903","0.0-3.0-0.1","","fixation","","",""
"5275","a_b new/ab_008.jpg","66","image-keyboard-response","6","42189","0.0-3.0-1.1","","","Neither","n","false"
"null","<div style=""font-size:60px;"">+</div>","null","html-keyboard-response","7","42703","0.0-3.0-0.2","","fixation","","",""
"4351","a_b montage/ab_109.jpg","66","image-keyboard-response","8","47062","0.0-3.0-1.2","","","Update","b","true"
"null","<div style=""font-size:60px;"">+</div>","null","html-keyboard-response","9","47579","0.0-3.0-0.3","","fixation","","",""
"4786","a_b montage/ab_088.jpg","76","image-keyboard-response","10","52376","0.0-3.0-1.3","","","Repeat","l","true"
"null","<div style=""font-size:60px;"">+</div>","null","html-keyboard-response","11","52907","0.0-3.0-0.4","","fixation","","",""
"3270","a_b montage/ab_067.jpg","66","image-keyboard-response","12","56188","0.0-3.0-1.4","","","Repeat","l","false"
"null","<div style=""font-size:60px;"">+</div>","null","html-keyboard-response","13","56697","0.0-3.0-0.5","","fixation","","",""
"5625","b_a montage/ba_174.jpg","76","image-keyboard-response","14","62332","0.0-3.0-1.5","","","Set_2_Only","r","false"
"null","<div style=""font-size:60px;"">+</div>","null","html-keyboard-response","15","62840","0.0-3.0-0.6","","fixation","","",""
"4447","a_b montage/ab_103.jpg","66","image-keyboard-response","16","67297","0.0-3.0-1.6","","","Update","b","true"
"null","<div style=""font-size:60px;"">+</div>","null","html-keyboard-response","17","67810","0.0-3.0-0.7","","fixation","","",""
"3136","a_b montage/ab_129.jpg","66","image-keyboard-response","18","70955","0.0-3.0-1.7","","","Update","b","true"
"null","<div style=""font-size:60px;"">+</div>","null","html-keyboard-response","19","71469","0.0-3.0-0.8","","fixation","","",""
"4753","a_b montage/ab_130.jpg","66","image-keyboard-response","20","76230","0.0-3.0-1.8","","","Update","b","true"
"null","<div style=""font-size:60px;"">+</div>","null","html-keyboard-response","21","76737","0.0-3.0-0.9","","fixation","","",""
"4463","a_b montage/ab_181.jpg","76","image-keyboard-response","22","81210","0.0-3.0-1.9","","","Set_2_Only","l","true"
"null","<div style=""font-size:60px;"">+</div>","null","html-keyboard-response","23","81730","0.0-3.0-0.10","","fixation","","",""
"4781","a_b montage/ab_179.jpg","76","image-keyboard-response","24","86518","0.0-3.0-1.10","","","Set_2_Only","l","true"
"null","<div style=""font-size:60px;"">+</div>","null","html-keyboard-response","25","87044","0.0-3.0-0.11","","fixation","","",""
"3606","a_b new/ab_016.jpg","66","image-keyboard-response","26","90655","0.0-3.0-1.11","","","Neither","n","false"
"null","<div style=""font-size:60px;"">+</div>","null","html-keyboard-response","27","91185","0.0-3.0-0.12","","fixation","","",""
"5056","a_b montage/ab_153.jpg","76","image-keyboard-response","28","96247","0.0-3.0-1.12","","","Update","b","false"
"null","<div style=""font-size:60px;"">+</div>","null","html-keyboard-response","29","96759","0.0-3.0-0.13","","fixation","","",""
"4402","b_a montage/ba_009.jpg","76","image-keyboard-response","30","101167","0.0-3.0-1.13","","","Set_1_Only","r","false"
"null","<div style=""font-size:60px;"">+</div>","null","html-keyboard-response","31","101681","0.0-3.0-0.14","","fixation","","",""
"4323","a_b montage/ab_141.jpg","66","image-keyboard-response","32","106011","0.0-3.0-1.14","","","Update","b","true"
"null","<div style=""font-size:60px;"">+</div>","null","html-keyboard-response","33","106526","0.0-3.0-0.15","","fixation","","",""
"4048","a_b montage/ab_079.jpg","76","image-keyboard-response","34","110580","0.0-3.0-1.15","","","Repeat","l","true"
"null","<div style=""font-size:60px;"">+</div>","null","html-keyboard-response","35","111089","0.0-3.0-0.16","","fixation","","",""
"4093","b_a montage/ba_176.jpg","76","image-keyboard-response","36","115189","0.0-3.0-1.16","","","Set_2_Only","r","false"
"null","<div style=""font-size:60px;"">+</div>","null","html-keyboard-response","37","115707","0.0-3.0-0.17","","fixation","","",""
"4818","a_b montage/ab_017.jpg","76","image-keyboard-response","38","120531","0.0-3.0-1.17","","","Set_1_Only","l","true"
"null","<div style=""font-size:60px;"">+</div>","null","html-keyboard-response","39","121056","0.0-3.0-0.18","","fixation","","",""
"5532","a_b montage/ab_069.jpg","66","image-keyboard-response","40","126593","0.0-3.0-1.18","","","Repeat","l","false"
"null","<div style=""font-size:60px;"">+</div>","null","html-keyboard-response","41","127109","0.0-3.0-0.19","","fixation","","",""
"4289","a_b montage/ab_100.jpg","82","image-keyboard-response","42","131403","0.0-3.0-1.19","","","Update","b","false"
"null","<div style=""font-size:60px;"">+</div>","null","html-keyboard-response","43","131915","0.0-3.0-0.20","","fixation","","",""
"4814","a_b new/ab_001.jpg","76","image-keyboard-response","44","136735","0.0-3.0-1.20","","","Neither","n","false"
"null","<div style=""font-size:60px;"">+</div>","null","html-keyboard-response","45","137248","0.0-3.0-0.21","","fixation","","",""
"4058","b_a montage/ba_013.jpg","76","image-keyboard-response","46","141313","0.0-3.0-1.21","","","Set_1_Only","r","false"
"null","<div style=""font-size:60px;"">+</div>","null","html-keyboard-response","47","141825","0.0-3.0-0.22","","fixation","","",""
"3743","a_b montage/ab_066.jpg","76","image-keyboard-response","48","145575","0.0-3.0-1.22","","","Repeat","l","true"
"null","<div style=""font-size:60px;"">+</div>","null","html-keyboard-response","49","146091","0.0-3.0-0.23","","fixation","","",""
"3669","b_a montage/ba_041.jpg","66","image-keyboard-response","50","149769","0.0-3.0-1.23","","","Repeat","r","false"
"null","<div style=""font-size:60px;"">+</div>","null","html-keyboard-response","51","150276","0.0-3.0-0.24","","fixation","","",""
"3789","b_a montage/ba_043.jpg","66","image-keyboard-response","52","154071","0.0-3.0-1.24","","","Repeat","r","false"
"null","<div style=""font-size:60px;"">+</div>","null","html-keyboard-response","53","154579","0.0-3.0-0.25","","fixation","","",""
"4731","a_b montage/ab_080.jpg","76","image-keyboard-response","54","159318","0.0-3.0-1.25","","","Repeat","l","true"
"null","<div style=""font-size:60px;"">+</div>","null","html-keyboard-response","55","159828","0.0-3.0-0.26","","fixation","","",""
"3510","a_b montage/ab_131.jpg","66","image-keyboard-response","56","163345","0.0-3.0-1.26","","","Update","b","true"
"null","<div style=""font-size:60px;"">+</div>","null","html-keyboard-response","57","163861","0.0-3.0-0.27","","fixation","","",""
"3660","a_b montage/ab_147.jpg","76","image-keyboard-response","58","167527","0.0-3.0-1.27","","","Update","b","false"
"null","<div style=""font-size:60px;"">+</div>","null","html-keyboard-response","59","168049","0.0-3.0-0.28","","fixation","","",""
"2696","b_a montage/ba_047.jpg","66","image-keyboard-response","60","170752","0.0-3.0-1.28","","","Repeat","r","false"
"null","<div style=""font-size:60px;"">+</div>","null","html-keyboard-response","61","171286","0.0-3.0-0.29","","fixation","","",""
"4199","b_a montage/ba_168.jpg","82","image-keyboard-response","62","175493","0.0-3.0-1.29","","","Set_2_Only","r","true"
"null","<div style=""font-size:60px;"">+</div>","null","html-keyboard-response","63","176022","0.0-3.0-0.30","","fixation","","",""
"3354","a_b montage/ab_104.jpg","76","image-keyboard-response","64","179381","0.0-3.0-1.30","","","Update","b","false"
"null","<div style=""font-size:60px;"">+</div>","null","html-keyboard-response","65","179890","0.0-3.0-0.31","","fixation","","",""
"3948","a_b montage/ab_159.jpg","82","image-keyboard-response","66","183845","0.0-3.0-1.31","","","Update","b","false"
"null","<div style=""font-size:60px;"">+</div>","null","html-keyboard-response","67","184361","0.0-3.0-0.32","","fixation","","",""
"3672","a_b montage/ab_091.jpg","76","image-keyboard-response","68","188039","0.0-3.0-1.32","","","Repeat","l","true"
"null","<div style=""font-size:60px;"">+</div>","null","html-keyboard-response","69","188552","0.0-3.0-0.33","","fixation","","",""
"3565","a_b montage/ab_185.jpg","76","image-keyboard-response","70","192122","0.0-3.0-1.33","","","Set_2_Only","l","true"
"null","<div style=""font-size:60px;"">+</div>","null","html-keyboard-response","71","192639","0.0-3.0-0.34","","fixation","","",""
"4359","a_b montage/ab_107.jpg","76","image-keyboard-response","72","197004","0.0-3.0-1.34","","","Update","b","false"
"null","<div style=""font-size:60px;"">+</div>","null","html-keyboard-response","73","197515","0.0-3.0-0.35","","fixation","","",""
"4001","b_a montage/ba_163.jpg","66","image-keyboard-response","74","201522","0.0-3.0-1.35","","","Set_2_Only","r","false"
"null","<div style=""font-size:60px;"">+</div>","null","html-keyboard-response","75","202031","0.0-3.0-0.36","","fixation","","",""
"4929","a_b new/ab_011.jpg","78","image-keyboard-response","76","206967","0.0-3.0-1.36","","","Neither","n","true"
"null","<div style=""font-size:60px;"">+</div>","null","html-keyboard-response","77","207500","0.0-3.0-0.37","","fixation","","",""
"4588","a_b montage/ab_182.jpg","82","image-keyboard-response","78","212096","0.0-3.0-1.37","","","Set_2_Only","l","false"
"null","<div style=""font-size:60px;"">+</div>","null","html-keyboard-response","79","212619","0.0-3.0-0.38","","fixation","","",""
"4735","a_b montage/ab_188.jpg","76","image-keyboard-response","80","217361","0.0-3.0-1.38","","","Set_2_Only","l","true"
"null","<div style=""font-size:60px;"">+</div>","null","html-keyboard-response","81","217890","0.0-3.0-0.39","","fixation","","",""
"3567","a_b montage/ab_099.jpg","76","image-keyboard-response","82","221468","0.0-3.0-1.39","","","Update","b","false"
"null","<div style=""font-size:60px;"">+</div>","null","html-keyboard-response","83","221982","0.0-3.0-0.40","","fixation","","",""
"3695","a_b montage/ab_127.jpg","76","image-keyboard-response","84","225682","0.0-3.0-1.40","","","Update","b","false"
"null","<div style=""font-size:60px;"">+</div>","null","html-keyboard-response","85","226188","0.0-3.0-0.41","","fixation","","",""
"4834","b_a montage/ba_050.jpg","82","image-keyboard-response","86","231030","0.0-3.0-1.41","","","Repeat","r","true"
"null","<div style=""font-size:60px;"">+</div>","null","html-keyboard-response","87","231539","0.0-3.0-0.42","","fixation","","",""
"3452","a_b montage/ab_142.jpg","76","image-keyboard-response","88","234999","0.0-3.0-1.42","","","Update","b","false"
"null","<div style=""font-size:60px;"">+</div>","null","html-keyboard-response","89","235518","0.0-3.0-0.43","","fixation","","",""
"3471","b_a montage/ba_056.jpg","76","image-keyboard-response","90","238996","0.0-3.0-1.43","","","Repeat","r","false"
"null","<div style=""font-size:60px;"">+</div>","null","html-keyboard-response","91","239502","0.0-3.0-0.44","","fixation","","",""
"6448","a_b montage/ab_150.jpg","76","image-keyboard-response","92","245956","0.0-3.0-1.44","","","Update","b","false"
"null","<div style=""font-size:60px;"">+</div>","null","html-keyboard-response","93","246473","0.0-3.0-0.45","","fixation","","",""
"5832","a_b montage/ab_020.jpg","66","image-keyboard-response","94","252312","0.0-3.0-1.45","","","Set_1_Only","l","false"
"null","<div style=""font-size:60px;"">+</div>","null","html-keyboard-response","95","252830","0.0-3.0-0.46","","fixation","","",""
"3936","a_b montage/ab_139.jpg","76","image-keyboard-response","96","256773","0.0-3.0-1.46","","","Update","b","false"
"null","<div style=""font-size:60px;"">+</div>","null","html-keyboard-response","97","257285","0.0-3.0-0.47","","fixation","","",""
"3902","a_b montage/ab_149.jpg","66","image-keyboard-response","98","261193","0.0-3.0-1.47","","","Update","b","true"
"null","<div style=""font-size:60px;"">+</div>","null","html-keyboard-response","99","261708","0.0-3.0-0.48","","fixation","","",""
"5121","a_b new/ab_003.jpg","76","image-keyboard-response","100","266838","0.0-3.0-1.48","","","Neither","n","false"
"null","<div style=""font-size:60px;"">+</div>","null","html-keyboard-response","101","267366","0.0-3.0-0.49","","fixation","","",""
"3540","a_b montage/ab_098.jpg","76","image-keyboard-response","102","270915","0.0-3.0-1.49","","","Update","b","false"
"null","<div style=""font-size:60px;"">+</div>","null","html-keyboard-response","103","271429","0.0-3.0-0.50","","fixation","","",""
"3173","a_b montage/ab_084.jpg","66","image-keyboard-response","104","274609","0.0-3.0-1.50","","","Repeat","l","false"
"null","<div style=""font-size:60px;"">+</div>","null","html-keyboard-response","105","275133","0.0-3.0-0.51","","fixation","","",""
"4803","a_b montage/ab_177.jpg","76","image-keyboard-response","106","279945","0.0-3.0-1.51","","","Set_2_Only","l","true"
"null","<div style=""font-size:60px;"">+</div>","null","html-keyboard-response","107","280465","0.0-3.0-0.52","","fixation","","",""
"2547","a_b montage/ab_111.jpg","76","image-keyboard-response","108","283029","0.0-3.0-1.52","","","Update","b","false"
"null","<div style=""font-size:60px;"">+</div>","null","html-keyboard-response","109","283544","0.0-3.0-0.53","","fixation","","",""
"3085","a_b montage/ab_090.jpg","76","image-keyboard-response","110","286637","0.0-3.0-1.53","","","Repeat","l","true"
"null","<div style=""font-size:60px;"">+</div>","null","html-keyboard-response","111","287154","0.0-3.0-0.54","","fixation","","",""
"3465","b_a montage/ba_012.jpg","76","image-keyboard-response","112","290626","0.0-3.0-1.54","","","Set_1_Only","r","false"
"null","<div style=""font-size:60px;"">+</div>","null","html-keyboard-response","113","291133","0.0-3.0-0.55","","fixation","","",""
"3800","b_a montage/ba_039.jpg","76","image-keyboard-response","114","294940","0.0-3.0-1.55","","","Repeat","r","false"
"null","<div style=""font-size:60px;"">+</div>","null","html-keyboard-response","115","295452","0.0-3.0-0.56","","fixation","","",""
"3749","a_b montage/ab_125.jpg","76","image-keyboard-response","116","299208","0.0-3.0-1.56","","","Update","b","false"
"null","<div style=""font-size:60px;"">+</div>","null","html-keyboard-response","117","299716","0.0-3.0-0.57","","fixation","","",""
"3243","b_a montage/ba_172.jpg","82","image-keyboard-response","118","302965","0.0-3.0-1.57","","","Set_2_Only","r","true"
"null","<div style=""font-size:60px;"">+</div>","null","html-keyboard-response","119","303498","0.0-3.0-0.58","","fixation","","",""
"3195","b_a montage/ba_046.jpg","76","image-keyboard-response","120","306699","0.0-3.0-1.58","","","Repeat","r","false"
"null","<div style=""font-size:60px;"">+</div>","null","html-keyboard-response","121","307204","0.0-3.0-0.59","","fixation","","",""
"3365","b_a montage/ba_004.jpg","76","image-keyboard-response","122","310573","0.0-3.0-1.59","","","Set_1_Only","r","false"
"null","<div style=""font-size:60px;"">+</div>","null","html-keyboard-response","123","311098","0.0-3.0-0.60","","fixation","","",""
"6798","b_a montage/ba_062.jpg","82","image-keyboard-response","124","317900","0.0-3.0-1.60","","","Repeat","r","true"
"null","<div style=""font-size:60px;"">+</div>","null","html-keyboard-response","125","318412","0.0-3.0-0.61","","fixation","","",""
"3690","b_a montage/ba_166.jpg","76","image-keyboard-response","126","322109","0.0-3.0-1.61","","","Set_2_Only","r","false"
"null","<div style=""font-size:60px;"">+</div>","null","html-keyboard-response","127","322617","0.0-3.0-0.62","","fixation","","",""
"4147","a_b montage/ab_148.jpg","82","image-keyboard-response","128","326772","0.0-3.0-1.62","","","Update","b","false"
"null","<div style=""font-size:60px;"">+</div>","null","html-keyboard-response","129","327283","0.0-3.0-0.63","","fixation","","",""
"null","a_b montage/ab_108.jpg","null","image-keyboard-response","130","337303","0.0-3.0-1.63","","","Update","b","false"
"null","<div style=""font-size:60px;"">+</div>","null","html-keyboard-response","131","337819","0.0-3.0-0.64","","fixation","","",""
"2635","a_b new/ab_010.jpg","78","image-keyboard-response","132","340463","0.0-3.0-1.64","","","Neither","n","true"
"null","<div style=""font-size:60px;"">+</div>","null","html-keyboard-response","133","340985","0.0-3.0-0.65","","fixation","","",""
"3682","b_a montage/ba_011.jpg","76","image-keyboard-response","134","344676","0.0-3.0-1.65","","","Set_1_Only","r","false"
"null","<div style=""font-size:60px;"">+</div>","null","html-keyboard-response","135","345184","0.0-3.0-0.66","","fixation","","",""
"3525","a_b montage/ab_180.jpg","76","image-keyboard-response","136","348719","0.0-3.0-1.66","","","Set_2_Only","l","true"
"null","<div style=""font-size:60px;"">+</div>","null","html-keyboard-response","137","349230","0.0-3.0-0.67","","fixation","","",""
"3620","b_a montage/ba_015.jpg","66","image-keyboard-response","138","352861","0.0-3.0-1.67","","","Set_1_Only","r","false"
"null","<div style=""font-size:60px;"">+</div>","null","html-keyboard-response","139","353388","0.0-3.0-0.68","","fixation","","",""
"4434","b_a montage/ba_058.jpg","82","image-keyboard-response","140","357832","0.0-3.0-1.68","","","Repeat","r","true"
"null","<div style=""font-size:60px;"">+</div>","null","html-keyboard-response","141","358359","0.0-3.0-0.69","","fixation","","",""
"2704","a_b montage/ab_154.jpg","76","image-keyboard-response","142","361080","0.0-3.0-1.69","","","Update","b","false"
"null","<div style=""font-size:60px;"">+</div>","null","html-keyboard-response","143","361609","0.0-3.0-0.70","","fixation","","",""
"3801","a_b montage/ab_112.jpg","76","image-keyboard-response","144","365421","0.0-3.0-1.70","","","Update","b","false"
"null","<div style=""font-size:60px;"">+</div>","null","html-keyboard-response","145","365938","0.0-3.0-0.71","","fixation","","",""
"3219","a_b montage/ab_183.jpg","66","image-keyboard-response","146","369166","0.0-3.0-1.71","","","Set_2_Only","l","false"
"null","<div style=""font-size:60px;"">+</div>","null","html-keyboard-response","147","369675","0.0-3.0-0.72","","fixation","","",""
"3050","a_b montage/ab_192.jpg","76","image-keyboard-response","148","372733","0.0-3.0-1.72","","","Set_2_Only","l","true"
"null","<div style=""font-size:60px;"">+</div>","null","html-keyboard-response","149","373252","0.0-3.0-0.73","","fixation","","",""
"4424","a_b montage/ab_113.jpg","76","image-keyboard-response","150","377686","0.0-3.0-1.73","","","Update","b","false"
"null","<div style=""font-size:60px;"">+</div>","null","html-keyboard-response","151","378194","0.0-3.0-0.74","","fixation","","",""
"4248","b_a montage/ba_037.jpg","78","image-keyboard-response","152","382450","0.0-3.0-1.74","","","Repeat","r","false"
"null","<div style=""font-size:60px;"">+</div>","null","html-keyboard-response","153","382965","0.0-3.0-0.75","","fixation","","",""
"4508","a_b montage/ab_019.jpg","78","image-keyboard-response","154","387484","0.0-3.0-1.75","","","Set_1_Only","l","false"
"null","<div style=""font-size:60px;"">+</div>","null","html-keyboard-response","155","387998","0.0-3.0-0.76","","fixation","","",""
"3448","a_b montage/ab_018.jpg","78","image-keyboard-response","156","391454","0.0-3.0-1.76","","","Set_1_Only","l","false"
"null","<div style=""font-size:60px;"">+</div>","null","html-keyboard-response","157","391969","0.0-3.0-0.77","","fixation","","",""
"3305","a_b montage/ab_085.jpg","76","image-keyboard-response","158","395283","0.0-3.0-1.77","","","Repeat","l","true"
"null","<div style=""font-size:60px;"">+</div>","null","html-keyboard-response","159","395814","0.0-3.0-0.78","","fixation","","",""
"4032","b_a montage/ba_034.jpg","76","image-keyboard-response","160","399854","0.0-3.0-1.78","","","Repeat","r","false"
"null","<div style=""font-size:60px;"">+</div>","null","html-keyboard-response","161","400383","0.0-3.0-0.79","","fixation","","",""
"4091","a_b montage/ab_117.jpg","76","image-keyboard-response","162","404481","0.0-3.0-1.79","","","Update","b","false"
"null","<div style=""font-size:60px;"">+</div>","null","html-keyboard-response","163","405012","0.0-3.0-0.80","","fixation","","",""
"3523","a_b montage/ab_082.jpg","76","image-keyboard-response","164","408544","0.0-3.0-1.80","","","Repeat","l","true"
"null","<div style=""font-size:60px;"">+</div>","null","html-keyboard-response","165","409060","0.0-3.0-0.81","","fixation","","",""
"3680","a_b montage/ab_092.jpg","76","image-keyboard-response","166","412750","0.0-3.0-1.81","","","Repeat","l","true"
"null","<div style=""font-size:60px;"">+</div>","null","html-keyboard-response","167","413264","0.0-3.0-0.82","","fixation","","",""
"4495","b_a montage/ba_060.jpg","66","image-keyboard-response","168","417766","0.0-3.0-1.82","","","Repeat","r","false"
"null","<div style=""font-size:60px;"">+</div>","null","html-keyboard-response","169","418282","0.0-3.0-0.83","","fixation","","",""
"4010","b_a montage/ba_061.jpg","82","image-keyboard-response","170","422301","0.0-3.0-1.83","","","Repeat","r","true"
"null","<div style=""font-size:60px;"">+</div>","null","html-keyboard-response","171","422816","0.0-3.0-0.84","","fixation","","",""
"4831","a_b montage/ab_158.jpg","76","image-keyboard-response","172","427655","0.0-3.0-1.84","","","Update","b","false"
"null","<div style=""font-size:60px;"">+</div>","null","html-keyboard-response","173","428168","0.0-3.0-0.85","","fixation","","",""
"4498","a_b montage/ab_075.jpg","76","image-keyboard-response","174","432673","0.0-3.0-1.85","","","Repeat","l","true"
"null","<div style=""font-size:60px;"">+</div>","null","html-keyboard-response","175","433206","0.0-3.0-0.86","","fixation","","",""
"2731","a_b montage/ab_086.jpg","76","image-keyboard-response","176","435943","0.0-3.0-1.86","","","Repeat","l","true"
"null","<div style=""font-size:60px;"">+</div>","null","html-keyboard-response","177","436459","0.0-3.0-0.87","","fixation","","",""
"3697","a_b montage/ab_190.jpg","76","image-keyboard-response","178","440162","0.0-3.0-1.87","","","Set_2_Only","l","true"
"null","<div style=""font-size:60px;"">+</div>","null","html-keyboard-response","179","440677","0.0-3.0-0.88","","fixation","","",""
"3661","b_a montage/ba_055.jpg","76","image-keyboard-response","180","444345","0.0-3.0-1.88","","","Repeat","r","false"
"null","<div style=""font-size:60px;"">+</div>","null","html-keyboard-response","181","444869","0.0-3.0-0.89","","fixation","","",""
"4729","a_b montage/ab_135.jpg","66","image-keyboard-response","182","449606","0.0-3.0-1.89","","","Update","b","true"
"null","<div style=""font-size:60px;"">+</div>","null","html-keyboard-response","183","450133","0.0-3.0-0.90","","fixation","","",""
"4092","a_b montage/ab_137.jpg","76","image-keyboard-response","184","454232","0.0-3.0-1.90","","","Update","b","false"
"null","<div style=""font-size:60px;"">+</div>","null","html-keyboard-response","185","454748","0.0-3.0-0.91","","fixation","","",""
"2923","b_a montage/ba_006.jpg","66","image-keyboard-response","186","457675","0.0-3.0-1.91","","","Set_1_Only","r","false"
"null","<div style=""font-size:60px;"">+</div>","null","html-keyboard-response","187","458190","0.0-3.0-0.92","","fixation","","",""
"5985","b_a montage/ba_170.jpg","82","image-keyboard-response","188","464182","0.0-3.0-1.92","","","Set_2_Only","r","true"
"null","<div style=""font-size:60px;"">+</div>","null","html-keyboard-response","189","464688","0.0-3.0-0.93","","fixation","","",""
"2830","b_a montage/ba_051.jpg","76","image-keyboard-response","190","467526","0.0-3.0-1.93","","","Repeat","r","false"
"null","<div style=""font-size:60px;"">+</div>","null","html-keyboard-response","191","468035","0.0-3.0-0.94","","fixation","","",""
"3329","a_b montage/ab_128.jpg","78","image-keyboard-response","192","471370","0.0-3.0-1.94","","","Update","b","false"
"null","<div style=""font-size:60px;"">+</div>","null","html-keyboard-response","193","471894","0.0-3.0-0.95","","fixation","","",""
"4413","a_b montage/ab_145.jpg","66","image-keyboard-response","194","476314","0.0-3.0-1.95","","","Update","b","true"
"null","<div style=""font-size:60px;"">+</div>","null","html-keyboard-response","195","476834","0.0-3.0-0.96","","fixation","","",""
"3535","a_b montage/ab_031.jpg","78","image-keyboard-response","196","480376","0.0-3.0-1.96","","","Set_1_Only","l","false"
"null","<div style=""font-size:60px;"">+</div>","null","html-keyboard-response","197","480907","0.0-3.0-0.97","","fixation","","",""
"4444","a_b montage/ab_071.jpg","76","image-keyboard-response","198","485356","0.0-3.0-1.97","","","Repeat","l","true"
"null","<div style=""font-size:60px;"">+</div>","null","html-keyboard-response","199","485878","0.0-3.0-0.98","","fixation","","",""
"4902","b_a montage/ba_120.jpg","82","image-keyboard-response","200","490788","0.0-3.0-1.98","","","Update","b","false"
"null","<div style=""font-size:60px;"">+</div>","null","html-keyboard-response","201","491317","0.0-3.0-0.99","","fixation","","",""
"4152","b_a montage/ba_143.jpg","76","image-keyboard-response","202","495480","0.0-3.0-1.99","","","Update","b","false"
"null","<div style=""font-size:60px;"">+</div>","null","html-keyboard-response","203","495990","0.0-3.0-0.100","","fixation","","",""
"4994","b_a montage/ba_146.jpg","76","image-keyboard-response","204","500996","0.0-3.0-1.100","","","Update","b","false"
"null","<div style=""font-size:60px;"">+</div>","null","html-keyboard-response","205","501513","0.0-3.0-0.101","","fixation","","",""
"4425","a_b new/ab_015.jpg","78","image-keyboard-response","206","505947","0.0-3.0-1.101","","","Neither","n","true"
"null","<div style=""font-size:60px;"">+</div>","null","html-keyboard-response","207","506462","0.0-3.0-0.102","","fixation","","",""
"3686","b_a montage/ba_097.jpg","76","image-keyboard-response","208","510154","0.0-3.0-1.102","","","Update","b","false"
"null","<div style=""font-size:60px;"">+</div>","null","html-keyboard-response","209","510668","0.0-3.0-0.103","","fixation","","",""
"4840","b_a montage/ba_036.jpg","76","image-keyboard-response","210","515516","0.0-3.0-1.103","","","Repeat","r","false"
"null","<div style=""font-size:60px;"">+</div>","null","html-keyboard-response","211","516022","0.0-3.0-0.104","","fixation","","",""
"3748","b_a montage/ba_136.jpg","76","image-keyboard-response","212","519775","0.0-3.0-1.104","","","Update","b","false"
"null","<div style=""font-size:60px;"">+</div>","null","html-keyboard-response","213","520297","0.0-3.0-0.105","","fixation","","",""
"6346","a_b montage/ab_073.jpg","82","image-keyboard-response","214","526651","0.0-3.0-1.105","","","Repeat","l","false"
"null","<div style=""font-size:60px;"">+</div>","null","html-keyboard-response","215","527186","0.0-3.0-0.106","","fixation","","",""
"3947","b_a montage/ba_133.jpg","76","image-keyboard-response","216","531141","0.0-3.0-1.106","","","Update","b","false"
"null","<div style=""font-size:60px;"">+</div>","null","html-keyboard-response","217","531663","0.0-3.0-0.107","","fixation","","",""
"3846","b_a montage/ba_045.jpg","82","image-keyboard-response","218","535518","0.0-3.0-1.107","","","Repeat","r","true"
"null","<div style=""font-size:60px;"">+</div>","null","html-keyboard-response","219","536040","0.0-3.0-0.108","","fixation","","",""
"3825","a_b montage/ab_081.jpg","76","image-keyboard-response","220","539875","0.0-3.0-1.108","","","Repeat","l","true"
"null","<div style=""font-size:60px;"">+</div>","null","html-keyboard-response","221","540393","0.0-3.0-0.109","","fixation","","",""
"2854","a_b montage/ab_089.jpg","76","image-keyboard-response","222","543252","0.0-3.0-1.109","","","Repeat","l","true"
"null","<div style=""font-size:60px;"">+</div>","null","html-keyboard-response","223","543773","0.0-3.0-0.110","","fixation","","",""
"1989","a_b new/ab_005.jpg","78","image-keyboard-response","224","545769","0.0-3.0-1.110","","","Neither","n","true"
"null","<div style=""font-size:60px;"">+</div>","null","html-keyboard-response","225","546274","0.0-3.0-0.111","","fixation","","",""
"3738","b_a montage/ba_053.jpg","66","image-keyboard-response","226","550018","0.0-3.0-1.111","","","Repeat","r","false"
"null","<div style=""font-size:60px;"">+</div>","null","html-keyboard-response","227","550535","0.0-3.0-0.112","","fixation","","",""
"3611","b_a montage/ba_119.jpg","76","image-keyboard-response","228","554153","0.0-3.0-1.112","","","Update","b","false"
"null","<div style=""font-size:60px;"">+</div>","null","html-keyboard-response","229","554668","0.0-3.0-0.113","","fixation","","",""
"4483","b_a montage/ba_171.jpg","76","image-keyboard-response","230","559159","0.0-3.0-1.113","","","Set_2_Only","r","false"
"null","<div style=""font-size:60px;"">+</div>","null","html-keyboard-response","231","559677","0.0-3.0-0.114","","fixation","","",""
"3603","b_a montage/ba_110.jpg","76","image-keyboard-response","232","563288","0.0-3.0-1.114","","","Update","b","false"
"null","<div style=""font-size:60px;"">+</div>","null","html-keyboard-response","233","563805","0.0-3.0-0.115","","fixation","","",""
"3468","b_a montage/ba_116.jpg","76","image-keyboard-response","234","567283","0.0-3.0-1.115","","","Update","b","false"
"null","<div style=""font-size:60px;"">+</div>","null","html-keyboard-response","235","567797","0.0-3.0-0.116","","fixation","","",""
"3022","a_b montage/ab_024.jpg","76","image-keyboard-response","236","570825","0.0-3.0-1.116","","","Set_1_Only","l","true"
"null","<div style=""font-size:60px;"">+</div>","null","html-keyboard-response","237","571341","0.0-3.0-0.117","","fixation","","",""
"3289","a_b montage/ab_026.jpg","76","image-keyboard-response","238","574637","0.0-3.0-1.117","","","Set_1_Only","l","true"
"null","<div style=""font-size:60px;"">+</div>","null","html-keyboard-response","239","575151","0.0-3.0-0.118","","fixation","","",""
"3458","b_a montage/ba_052.jpg","76","image-keyboard-response","240","578615","0.0-3.0-1.118","","","Repeat","r","false"
"null","<div style=""font-size:60px;"">+</div>","null","html-keyboard-response","241","579127","0.0-3.0-0.119","","fixation","","",""
"4221","a_b montage/ab_094.jpg","76","image-keyboard-response","242","583354","0.0-3.0-1.119","","","Repeat","l","true"
"null","<div style=""font-size:60px;"">+</div>","null","html-keyboard-response","243","583876","0.0-3.0-0.120","","fixation","","",""
"3400","b_a montage/ba_101.jpg","76","image-keyboard-response","244","587285","0.0-3.0-1.120","","","Update","b","false"
"null","<div style=""font-size:60px;"">+</div>","null","html-keyboard-response","245","587807","0.0-3.0-0.121","","fixation","","",""
"4031","b_a montage/ba_152.jpg","76","image-keyboard-response","246","591845","0.0-3.0-1.121","","","Update","b","false"
"null","<div style=""font-size:60px;"">+</div>","null","html-keyboard-response","247","592354","0.0-3.0-0.122","","fixation","","",""
"5101","a_b montage/ab_093.jpg","66","image-keyboard-response","248","597463","0.0-3.0-1.122","","","Repeat","l","false"
"null","<div style=""font-size:60px;"">+</div>","null","html-keyboard-response","249","597981","0.0-3.0-0.123","","fixation","","",""
"1659","a_b new/ab_007.jpg","78","image-keyboard-response","250","599648","0.0-3.0-1.123","","","Neither","n","true"
"null","<div style=""font-size:60px;"">+</div>","null","html-keyboard-response","251","600177","0.0-3.0-0.124","","fixation","","",""
"3254","b_a montage/ba_102.jpg","66","image-keyboard-response","252","603445","0.0-3.0-1.124","","","Update","b","true"
"null","<div style=""font-size:60px;"">+</div>","null","html-keyboard-response","253","603971","0.0-3.0-0.125","","fixation","","",""
"3978","a_b montage/ab_021.jpg","76","image-keyboard-response","254","607959","0.0-3.0-1.125","","","Set_1_Only","l","true"
"null","<div style=""font-size:60px;"">+</div>","null","html-keyboard-response","255","608476","0.0-3.0-0.126","","fixation","","",""
"3968","a_b montage/ab_065.jpg","76","image-keyboard-response","256","612453","0.0-3.0-1.126","","","Repeat","l","true"
"null","<div style=""font-size:60px;"">+</div>","null","html-keyboard-response","257","612967","0.0-3.0-0.127","","fixation","","",""
"3542","a_b new/ab_002.jpg","78","image-keyboard-response","258","616516","0.0-3.0-1.127","","","Neither","n","true"
"null","<div style=""font-size:60px;"">+</div>","null","html-keyboard-response","259","617035","0.0-3.0-0.128","","fixation","","",""
"3743","b_a montage/ba_057.jpg","76","image-keyboard-response","260","620783","0.0-3.0-1.128","","","Repeat","r","false"
"null","<div style=""font-size:60px;"">+</div>","null","html-keyboard-response","261","621297","0.0-3.0-0.129","","fixation","","",""
"4854","b_a montage/ba_167.jpg","76","image-keyboard-response","262","626158","0.0-3.0-1.129","","","Set_2_Only","r","false"
"null","<div style=""font-size:60px;"">+</div>","null","html-keyboard-response","263","626677","0.0-3.0-0.130","","fixation","","",""
"3238","b_a montage/ba_160.jpg","78","image-keyboard-response","264","629920","0.0-3.0-1.130","","","Update","b","false"
"null","<div style=""font-size:60px;"">+</div>","null","html-keyboard-response","265","630429","0.0-3.0-0.131","","fixation","","",""
"4467","b_a montage/ba_005.jpg","78","image-keyboard-response","266","634906","0.0-3.0-1.131","","","Set_1_Only","r","false"
"null","<div style=""font-size:60px;"">+</div>","null","html-keyboard-response","267","635428","0.0-3.0-0.132","","fixation","","",""
"4456","b_a montage/ba_140.jpg","82","image-keyboard-response","268","639890","0.0-3.0-1.132","","","Update","b","false"
"null","<div style=""font-size:60px;"">+</div>","null","html-keyboard-response","269","640424","0.0-3.0-0.133","","fixation","","",""
"1703","b_a new/ba_006.jpg","78","image-keyboard-response","270","642133","0.0-3.0-1.133","","","Neither","n","true"
"null","<div style=""font-size:60px;"">+</div>","null","html-keyboard-response","271","642651","0.0-3.0-0.134","","fixation","","",""
"3902","b_a montage/ba_123.jpg","76","image-keyboard-response","272","646562","0.0-3.0-1.134","","","Update","b","false"
"null","<div style=""font-size:60px;"">+</div>","null","html-keyboard-response","273","647084","0.0-3.0-0.135","","fixation","","",""
"2860","b_a montage/ba_033.jpg","76","image-keyboard-response","274","649952","0.0-3.0-1.135","","","Repeat","r","false"
"null","<div style=""font-size:60px;"">+</div>","null","html-keyboard-response","275","650469","0.0-3.0-0.136","","fixation","","",""
"3825","a_b montage/ab_077.jpg","76","image-keyboard-response","276","654301","0.0-3.0-1.136","","","Repeat","l","true"
"null","<div style=""font-size:60px;"">+</div>","null","html-keyboard-response","277","654826","0.0-3.0-0.137","","fixation","","",""
"3733","a_b montage/ab_032.jpg","78","image-keyboard-response","278","658566","0.0-3.0-1.137","","","Set_1_Only","l","false"
"null","<div style=""font-size:60px;"">+</div>","null","html-keyboard-response","279","659075","0.0-3.0-0.138","","fixation","","",""
"3579","b_a montage/ba_156.jpg","76","image-keyboard-response","280","662663","0.0-3.0-1.138","","","Update","b","false"
"null","<div style=""font-size:60px;"">+</div>","null","html-keyboard-response","281","663167","0.0-3.0-0.139","","fixation","","",""
"5050","a_b montage/ab_022.jpg","76","image-keyboard-response","282","668223","0.0-3.0-1.139","","","Set_1_Only","l","true"
"null","<div style=""font-size:60px;"">+</div>","null","html-keyboard-response","283","668744","0.0-3.0-0.140","","fixation","","",""
"5226","b_a montage/ba_114.jpg","66","image-keyboard-response","284","673981","0.0-3.0-1.140","","","Update","b","true"
"null","<div style=""font-size:60px;"">+</div>","null","html-keyboard-response","285","674496","0.0-3.0-0.141","","fixation","","",""
"4620","b_a new/ba_013.jpg","76","image-keyboard-response","286","679123","0.0-3.0-1.141","","","Neither","n","false"
"null","<div style=""font-size:60px;"">+</div>","null","html-keyboard-response","287","679644","0.0-3.0-0.142","","fixation","","",""
"3464","a_b montage/ab_023.jpg","76","image-keyboard-response","288","683117","0.0-3.0-1.142","","","Set_1_Only","l","true"
"null","<div style=""font-size:60px;"">+</div>","null","html-keyboard-response","289","683633","0.0-3.0-0.143","","fixation","","",""
"3767","a_b montage/ab_087.jpg","76","image-keyboard-response","290","687442","0.0-3.0-1.143","","","Repeat","l","true"
"null","<div style=""font-size:60px;"">+</div>","null","html-keyboard-response","291","687960","0.0-3.0-0.144","","fixation","","",""
"3828","b_a montage/ba_155.jpg","76","image-keyboard-response","292","691828","0.0-3.0-1.144","","","Update","b","false"
"null","<div style=""font-size:60px;"">+</div>","null","html-keyboard-response","293","692357","0.0-3.0-0.145","","fixation","","",""
"2695","b_a montage/ba_002.jpg","76","image-keyboard-response","294","695060","0.0-3.0-1.145","","","Set_1_Only","r","false"
"null","<div style=""font-size:60px;"">+</div>","null","html-keyboard-response","295","695571","0.0-3.0-0.146","","fixation","","",""
"4731","b_a montage/ba_161.jpg","76","image-keyboard-response","296","700310","0.0-3.0-1.146","","","Set_2_Only","r","false"
"null","<div style=""font-size:60px;"">+</div>","null","html-keyboard-response","297","700836","0.0-3.0-0.147","","fixation","","",""
"4300","a_b montage/ab_029.jpg","78","image-keyboard-response","298","705148","0.0-3.0-1.147","","","Set_1_Only","l","false"
"null","<div style=""font-size:60px;"">+</div>","null","html-keyboard-response","299","705659","0.0-3.0-0.148","","fixation","","",""
"3317","a_b montage/ab_030.jpg","76","image-keyboard-response","300","708985","0.0-3.0-1.148","","","Set_1_Only","l","true"
"null","<div style=""font-size:60px;"">+</div>","null","html-keyboard-response","301","709503","0.0-3.0-0.149","","fixation","","",""
"2486","b_a new/ba_004.jpg","78","image-keyboard-response","302","711995","0.0-3.0-1.149","","","Neither","n","true"
"null","<div style=""font-size:60px;"">+</div>","null","html-keyboard-response","303","712517","0.0-3.0-0.150","","fixation","","",""
"3983","b_a montage/ba_049.jpg","66","image-keyboard-response","304","716505","0.0-3.0-1.150","","","Repeat","r","false"
"null","<div style=""font-size:60px;"">+</div>","null","html-keyboard-response","305","717021","0.0-3.0-0.151","","fixation","","",""
"3895","a_b montage/ab_027.jpg","76","image-keyboard-response","306","720923","0.0-3.0-1.151","","","Set_1_Only","l","true"
"null","<div style=""font-size:60px;"">+</div>","null","html-keyboard-response","307","721434","0.0-3.0-0.152","","fixation","","",""
"4132","b_a montage/ba_008.jpg","66","image-keyboard-response","308","725575","0.0-3.0-1.152","","","Set_1_Only","r","false"
"null","<div style=""font-size:60px;"">+</div>","null","html-keyboard-response","309","726082","0.0-3.0-0.153","","fixation","","",""
"3236","b_a montage/ba_048.jpg","76","image-keyboard-response","310","729323","0.0-3.0-1.153","","","Repeat","r","false"
"null","<div style=""font-size:60px;"">+</div>","null","html-keyboard-response","311","729832","0.0-3.0-0.154","","fixation","","",""
"3616","a_b montage/ab_191.jpg","78","image-keyboard-response","312","733456","0.0-3.0-1.154","","","Set_2_Only","l","false"
"null","<div style=""font-size:60px;"">+</div>","null","html-keyboard-response","313","733964","0.0-3.0-0.155","","fixation","","",""
"2883","a_b montage/ab_186.jpg","76","image-keyboard-response","314","736854","0.0-3.0-1.155","","","Set_2_Only","l","true"
"null","<div style=""font-size:60px;"">+</div>","null","html-keyboard-response","315","737359","0.0-3.0-0.156","","fixation","","",""
"3242","b_a montage/ba_157.jpg","76","image-keyboard-response","316","740608","0.0-3.0-1.156","","","Update","b","false"
"null","<div style=""font-size:60px;"">+</div>","null","html-keyboard-response","317","741141","0.0-3.0-0.157","","fixation","","",""
"3192","a_b montage/ab_072.jpg","76","image-keyboard-response","318","744339","0.0-3.0-1.157","","","Repeat","l","true"
"null","<div style=""font-size:60px;"">+</div>","null","html-keyboard-response","319","744857","0.0-3.0-0.158","","fixation","","",""
"5030","b_a montage/ba_173.jpg","76","image-keyboard-response","320","749894","0.0-3.0-1.158","","","Set_2_Only","r","false"
"null","<div style=""font-size:60px;"">+</div>","null","html-keyboard-response","321","750411","0.0-3.0-0.159","","fixation","","",""
"4781","a_b montage/ab_187.jpg","82","image-keyboard-response","322","755198","0.0-3.0-1.159","","","Set_2_Only","l","false"
"null","<div style=""font-size:60px;"">+</div>","null","html-keyboard-response","323","755712","0.0-3.0-0.160","","fixation","","",""
"3609","b_a montage/ba_016.jpg","78","image-keyboard-response","324","759327","0.0-3.0-1.160","","","Set_1_Only","r","false"
"null","<div style=""font-size:60px;"">+</div>","null","html-keyboard-response","325","759845","0.0-3.0-0.161","","fixation","","",""
"3366","a_b montage/ab_095.jpg","76","image-keyboard-response","326","763220","0.0-3.0-1.161","","","Repeat","l","true"
"null","<div style=""font-size:60px;"">+</div>","null","html-keyboard-response","327","763739","0.0-3.0-0.162","","fixation","","",""
"3058","a_b montage/ab_178.jpg","76","image-keyboard-response","328","766807","0.0-3.0-1.162","","","Set_2_Only","l","true"
"null","<div style=""font-size:60px;"">+</div>","null","html-keyboard-response","329","767332","0.0-3.0-0.163","","fixation","","",""
"null","b_a new/ba_014.jpg","null","image-keyboard-response","330","777345","0.0-3.0-1.163","","","Neither","n","false"
"null","<div style=""font-size:60px;"">+</div>","null","html-keyboard-response","331","777865","0.0-3.0-0.164","","fixation","","",""
"3179","b_a montage/ba_126.jpg","76","image-keyboard-response","332","781049","0.0-3.0-1.164","","","Update","b","false"
"null","<div style=""font-size:60px;"">+</div>","null","html-keyboard-response","333","781562","0.0-3.0-0.165","","fixation","","",""
"3206","b_a montage/ba_134.jpg","66","image-keyboard-response","334","784777","0.0-3.0-1.165","","","Update","b","true"
"null","<div style=""font-size:60px;"">+</div>","null","html-keyboard-response","335","785288","0.0-3.0-0.166","","fixation","","",""
"3659","b_a montage/ba_162.jpg","76","image-keyboard-response","336","788956","0.0-3.0-1.166","","","Set_2_Only","r","false"
"null","<div style=""font-size:60px;"">+</div>","null","html-keyboard-response","337","789473","0.0-3.0-0.167","","fixation","","",""
"1813","b_a montage/ba_003.jpg","78","image-keyboard-response","338","791295","0.0-3.0-1.167","","","Set_1_Only","r","false"
"null","<div style=""font-size:60px;"">+</div>","null","html-keyboard-response","339","791817","0.0-3.0-0.168","","fixation","","",""
"4359","b_a montage/ba_007.jpg","76","image-keyboard-response","340","796182","0.0-3.0-1.168","","","Set_1_Only","r","false"
"null","<div style=""font-size:60px;"">+</div>","null","html-keyboard-response","341","796697","0.0-3.0-0.169","","fixation","","",""
"3415","b_a montage/ba_063.jpg","82","image-keyboard-response","342","800120","0.0-3.0-1.169","","","Repeat","r","true"
"null","<div style=""font-size:60px;"">+</div>","null","html-keyboard-response","343","800640","0.0-3.0-0.170","","fixation","","",""
"2713","b_a montage/ba_132.jpg","66","image-keyboard-response","344","803359","0.0-3.0-1.170","","","Update","b","true"
"null","<div style=""font-size:60px;"">+</div>","null","html-keyboard-response","345","803871","0.0-3.0-0.171","","fixation","","",""
"2414","a_b montage/ab_096.jpg","76","image-keyboard-response","346","806294","0.0-3.0-1.171","","","Repeat","l","true"
"null","<div style=""font-size:60px;"">+</div>","null","html-keyboard-response","347","806819","0.0-3.0-0.172","","fixation","","",""
"3103","b_a montage/ba_014.jpg","76","image-keyboard-response","348","809931","0.0-3.0-1.172","","","Set_1_Only","r","false"
"null","<div style=""font-size:60px;"">+</div>","null","html-keyboard-response","349","810446","0.0-3.0-0.173","","fixation","","",""
"2564","b_a montage/ba_105.jpg","76","image-keyboard-response","350","813018","0.0-3.0-1.173","","","Update","b","false"
"null","<div style=""font-size:60px;"">+</div>","null","html-keyboard-response","351","813535","0.0-3.0-0.174","","fixation","","",""
"4265","b_a montage/ba_054.jpg","82","image-keyboard-response","352","817805","0.0-3.0-1.174","","","Repeat","r","true"
"null","<div style=""font-size:60px;"">+</div>","null","html-keyboard-response","353","818319","0.0-3.0-0.175","","fixation","","",""
"3926","b_a montage/ba_042.jpg","66","image-keyboard-response","354","822259","0.0-3.0-1.175","","","Repeat","r","false"
"null","<div style=""font-size:60px;"">+</div>","null","html-keyboard-response","355","822768","0.0-3.0-0.176","","fixation","","",""
"2363","a_b montage/ab_074.jpg","76","image-keyboard-response","356","825137","0.0-3.0-1.176","","","Repeat","l","true"
"null","<div style=""font-size:60px;"">+</div>","null","html-keyboard-response","357","825659","0.0-3.0-0.177","","fixation","","",""
"3997","a_b montage/ab_083.jpg","66","image-keyboard-response","358","829666","0.0-3.0-1.177","","","Repeat","l","false"
"null","<div style=""font-size:60px;"">+</div>","null","html-keyboard-response","359","830179","0.0-3.0-0.178","","fixation","","",""
"3580","b_a montage/ba_144.jpg","76","image-keyboard-response","360","833766","0.0-3.0-1.178","","","Update","b","false"
"null","<div style=""font-size:60px;"">+</div>","null","html-keyboard-response","361","834291","0.0-3.0-0.179","","fixation","","",""
"3653","a_b montage/ab_078.jpg","76","image-keyboard-response","362","837951","0.0-3.0-1.179","","","Repeat","l","true"
"null","<div style=""font-size:60px;"">+</div>","null","html-keyboard-response","363","838462","0.0-3.0-0.180","","fixation","","",""
"2636","a_b montage/ab_184.jpg","76","image-keyboard-response","364","841173","0.0-3.0-1.180","","","Set_2_Only","l","true"
"null","<div style=""font-size:60px;"">+</div>","null","html-keyboard-response","365","841679","0.0-3.0-0.181","","fixation","","",""
"5270","b_a montage/ba_121.jpg","82","image-keyboard-response","366","846956","0.0-3.0-1.181","","","Update","b","false"
"null","<div style=""font-size:60px;"">+</div>","null","html-keyboard-response","367","847465","0.0-3.0-0.182","","fixation","","",""
"3215","b_a montage/ba_001.jpg","76","image-keyboard-response","368","850686","0.0-3.0-1.182","","","Set_1_Only","r","false"
"null","<div style=""font-size:60px;"">+</div>","null","html-keyboard-response","369","851199","0.0-3.0-0.183","","fixation","","",""
"3783","b_a montage/ba_106.jpg","66","image-keyboard-response","370","854991","0.0-3.0-1.183","","","Update","b","true"
"null","<div style=""font-size:60px;"">+</div>","null","html-keyboard-response","371","855509","0.0-3.0-0.184","","fixation","","",""
"3824","b_a montage/ba_122.jpg","76","image-keyboard-response","372","859343","0.0-3.0-1.184","","","Update","b","false"
"null","<div style=""font-size:60px;"">+</div>","null","html-keyboard-response","373","859870","0.0-3.0-0.185","","fixation","","",""
"3593","b_a montage/ba_064.jpg","66","image-keyboard-response","374","863469","0.0-3.0-1.185","","","Repeat","r","false"
"null","<div style=""font-size:60px;"">+</div>","null","html-keyboard-response","375","863996","0.0-3.0-0.186","","fixation","","",""
"3117","b_a montage/ba_059.jpg","76","image-keyboard-response","376","867120","0.0-3.0-1.186","","","Repeat","r","false"
"null","<div style=""font-size:60px;"">+</div>","null","html-keyboard-response","377","867639","0.0-3.0-0.187","","fixation","","",""
"2108","b_a montage/ba_175.jpg","76","image-keyboard-response","378","869754","0.0-3.0-1.187","","","Set_2_Only","r","false"
"null","<div style=""font-size:60px;"">+</div>","null","html-keyboard-response","379","870275","0.0-3.0-0.188","","fixation","","",""
"3307","b_a montage/ba_169.jpg","76","image-keyboard-response","380","873591","0.0-3.0-1.188","","","Set_2_Only","r","false"
"null","<div style=""font-size:60px;"">+</div>","null","html-keyboard-response","381","874114","0.0-3.0-0.189","","fixation","","",""
"5708","b_a montage/ba_151.jpg","66","image-keyboard-response","382","879828","0.0-3.0-1.189","","","Update","b","true"
"null","<div style=""font-size:60px;"">+</div>","null","html-keyboard-response","383","880339","0.0-3.0-0.190","","fixation","","",""
"2083","b_a montage/ba_010.jpg","76","image-keyboard-response","384","882432","0.0-3.0-1.190","","","Set_1_Only","r","false"
"null","<div style=""font-size:60px;"">+</div>","null","html-keyboard-response","385","882947","0.0-3.0-0.191","","fixation","","",""
"3737","b_a montage/ba_164.jpg","76","image-keyboard-response","386","886692","0.0-3.0-1.191","","","Set_2_Only","r","false"
"null","<div style=""font-size:60px;"">+</div>","null","html-keyboard-response","387","887212","0.0-3.0-0.192","","fixation","","",""
"3927","a_b montage/ab_070.jpg","66","image-keyboard-response","388","891149","0.0-3.0-1.192","","","Repeat","l","false"
"null","<div style=""font-size:60px;"">+</div>","null","html-keyboard-response","389","891676","0.0-3.0-0.193","","fixation","","",""
"4239","b_a montage/ba_044.jpg","76","image-keyboard-response","390","895921","0.0-3.0-1.193","","","Repeat","r","false"
"null","<div style=""font-size:60px;"">+</div>","null","html-keyboard-response","391","896442","0.0-3.0-0.194","","fixation","","",""
"3641","b_a montage/ba_035.jpg","76","image-keyboard-response","392","900093","0.0-3.0-1.194","","","Repeat","r","false"
"null","<div style=""font-size:60px;"">+</div>","null","html-keyboard-response","393","900615","0.0-3.0-0.195","","fixation","","",""
"3921","b_a montage/ba_040.jpg","76","image-keyboard-response","394","904549","0.0-3.0-1.195","","","Repeat","r","false"
"null","<div style=""font-size:60px;"">+</div>","null","html-keyboard-response","395","905062","0.0-3.0-0.196","","fixation","","",""
"4201","b_a montage/ba_124.jpg","76","image-keyboard-response","396","909273","0.0-3.0-1.196","","","Update","b","false"
"null","<div style=""font-size:60px;"">+</div>","null","html-keyboard-response","397","909788","0.0-3.0-0.197","","fixation","","",""
"2629","a_b montage/ab_025.jpg","76","image-keyboard-response","398","912425","0.0-3.0-1.197","","","Set_1_Only","l","true"
"null","<div style=""font-size:60px;"">+</div>","null","html-keyboard-response","399","912949","0.0-3.0-0.198","","fixation","","",""
"4555","b_a montage/ba_165.jpg","66","image-keyboard-response","400","917511","0.0-3.0-1.198","","","Set_2_Only","r","false"
"null","<div style=""font-size:60px;"">+</div>","null","html-keyboard-response","401","918021","0.0-3.0-0.199","","fixation","","",""
"2577","b_a montage/ba_138.jpg","76","image-keyboard-response","402","920605","0.0-3.0-1.199","","","Update","b","false"
"null","<div style=""font-size:60px;"">+</div>","null","html-keyboard-response","403","921111","0.0-3.0-0.200","","fixation","","",""
"4276","a_b montage/ab_028.jpg","78","image-keyboard-response","404","925396","0.0-3.0-1.200","","","Set_1_Only","l","false"
"null","<div style=""font-size:60px;"">+</div>","null","html-keyboard-response","405","925914","0.0-3.0-0.201","","fixation","","",""
"2063","a_b montage/ab_076.jpg","76","image-keyboard-response","406","927984","0.0-3.0-1.201","","","Repeat","l","true"
"null","<div style=""font-size:60px;"">+</div>","null","html-keyboard-response","407","928491","0.0-3.0-0.202","","fixation","","",""
"5329","b_a new/ba_012.jpg","82","image-keyboard-response","408","933828","0.0-3.0-1.202","","","Neither","n","false"
"null","<div style=""font-size:60px;"">+</div>","null","html-keyboard-response","409","934349","0.0-3.0-0.203","","fixation","","",""
"2573","a_b montage/ab_068.jpg","76","image-keyboard-response","410","936931","0.0-3.0-1.203","","","Repeat","l","true"
"null","<div style=""font-size:60px;"">+</div>","null","html-keyboard-response","411","937446","0.0-3.0-0.204","","fixation","","",""
"1844","b_a montage/ba_115.jpg","76","image-keyboard-response","412","939300","0.0-3.0-1.204","","","Update","b","false"
"null","<div style=""font-size:60px;"">+</div>","null","html-keyboard-response","413","939819","0.0-3.0-0.205","","fixation","","",""
"2014","b_a montage/ba_118.jpg","76","image-keyboard-response","414","941840","0.0-3.0-1.205","","","Update","b","false"
"null","<div style=""font-size:60px;"">+</div>","null","html-keyboard-response","415","942354","0.0-3.0-0.206","","fixation","","",""
"4427","a_b montage/ab_189.jpg","76","image-keyboard-response","416","946790","0.0-3.0-1.206","","","Set_2_Only","l","true"
"null","<div style=""font-size:60px;"">+</div>","null","html-keyboard-response","417","947309","0.0-3.0-0.207","","fixation","","",""
"3129","b_a new/ba_009.jpg","78","image-keyboard-response","418","950445","0.0-3.0-1.207","","","Neither","n","true"
