"rt","stimulus","key_press","trial_type","trial_index","time_elapsed","internal_node_id","responses","test_part","stim_type","correct_response","correct"
"2563","Press any key to begin.","75","html-keyboard-response","0","2576","0.0-0.0","","","","",""
"8074","","","survey-text","1","10654","0.0-1.0","{""Q0"":""\""Test201225\"""",""Q1"":""\""Test201225\""""}","","","",""
"7291","<p>For this phase you will see two similar images side by side on the screen I want you to tell us which of the items you have seen before in any of the previous sets of images. </p><p>If you have only seen the image on the left you will press the 'L' key on your keyboard.</p>If you have only seen the image on the right you will press the 'R' key on your keyboard.</p>If you have previously seen both of the images you will press the 'B' key on your keyboard.</p>If you have not seen either image you will press the 'N' key on your keyboard.</p><div style='width: 700px;'></div><p>Press any key to begin.</p>","74","html-keyboard-response","2","17947","0.0-2.0","","","","",""
"null","<div style=""font-size:60px;"">+</div>","null","html-keyboard-response","3","20497","0.0-3.0-0.0","","fixation","","",""
"2528","b_a montage/ba_038.jpg","66","image-keyboard-response","4","23029","0.0-3.0-1.0","","","Repeat","r","false"
"null","<div style=""font-size:60px;"">+</div>","null","html-keyboard-response","5","23543","0.0-3.0-0.1","","fixation","","",""
"1930","a_b new/ab_008.jpg","78","image-keyboard-response","6","25477","0.0-3.0-1.1","","","Neither","n","true"
"null","<div style=""font-size:60px;"">+</div>","null","html-keyboard-response","7","25994","0.0-3.0-0.2","","fixation","","",""
"1922","a_b montage/ab_109.jpg","66","image-keyboard-response","8","27917","0.0-3.0-1.2","","","Update","b","true"
"null","<div style=""font-size:60px;"">+</div>","null","html-keyboard-response","9","28420","0.0-3.0-0.3","","fixation","","",""
"2927","a_b montage/ab_088.jpg","76","image-keyboard-response","10","31349","0.0-3.0-1.3","","","Repeat","l","true"
"null","<div style=""font-size:60px;"">+</div>","null","html-keyboard-response","11","31854","0.0-3.0-0.4","","fixation","","",""
"2580","a_b montage/ab_067.jpg","76","image-keyboard-response","12","34437","0.0-3.0-1.4","","","Repeat","l","true"
"null","<div style=""font-size:60px;"">+</div>","null","html-keyboard-response","13","34950","0.0-3.0-0.5","","fixation","","",""
"2260","b_a montage/ba_174.jpg","82","image-keyboard-response","14","37213","0.0-3.0-1.5","","","Set_2_Only","r","true"
"null","<div style=""font-size:60px;"">+</div>","null","html-keyboard-response","15","37718","0.0-3.0-0.6","","fixation","","",""
"2799","a_b montage/ab_103.jpg","76","image-keyboard-response","16","40519","0.0-3.0-1.6","","","Update","b","false"
"null","<div style=""font-size:60px;"">+</div>","null","html-keyboard-response","17","41027","0.0-3.0-0.7","","fixation","","",""
"2265","a_b montage/ab_129.jpg","76","image-keyboard-response","18","43295","0.0-3.0-1.7","","","Update","b","false"
"null","<div style=""font-size:60px;"">+</div>","null","html-keyboard-response","19","43803","0.0-3.0-0.8","","fixation","","",""
"2096","a_b montage/ab_130.jpg","66","image-keyboard-response","20","45901","0.0-3.0-1.8","","","Update","b","true"
"null","<div style=""font-size:60px;"">+</div>","null","html-keyboard-response","21","46410","0.0-3.0-0.9","","fixation","","",""
"2307","a_b montage/ab_181.jpg","76","image-keyboard-response","22","48718","0.0-3.0-1.9","","","Set_2_Only","l","true"
"null","<div style=""font-size:60px;"">+</div>","null","html-keyboard-response","23","49239","0.0-3.0-0.10","","fixation","","",""
"2221","a_b montage/ab_179.jpg","76","image-keyboard-response","24","51462","0.0-3.0-1.10","","","Set_2_Only","l","true"
"null","<div style=""font-size:60px;"">+</div>","null","html-keyboard-response","25","51977","0.0-3.0-0.11","","fixation","","",""
"2066","a_b new/ab_016.jpg","78","image-keyboard-response","26","54046","0.0-3.0-1.11","","","Neither","n","true"
"null","<div style=""font-size:60px;"">+</div>","null","html-keyboard-response","27","54557","0.0-3.0-0.12","","fixation","","",""
"3264","a_b montage/ab_153.jpg","82","image-keyboard-response","28","57823","0.0-3.0-1.12","","","Update","b","false"
"null","<div style=""font-size:60px;"">+</div>","null","html-keyboard-response","29","58347","0.0-3.0-0.13","","fixation","","",""
"2450","b_a montage/ba_009.jpg","76","image-keyboard-response","30","60799","0.0-3.0-1.13","","","Set_1_Only","r","false"
"null","<div style=""font-size:60px;"">+</div>","null","html-keyboard-response","31","61336","0.0-3.0-0.14","","fixation","","",""
"3245","a_b montage/ab_141.jpg","66","image-keyboard-response","32","64582","0.0-3.0-1.14","","","Update","b","true"
"null","<div style=""font-size:60px;"">+</div>","null","html-keyboard-response","33","65097","0.0-3.0-0.15","","fixation","","",""
"2452","a_b montage/ab_079.jpg","76","image-keyboard-response","34","67552","0.0-3.0-1.15","","","Repeat","l","true"
"null","<div style=""font-size:60px;"">+</div>","null","html-keyboard-response","35","68062","0.0-3.0-0.16","","fixation","","",""
"3479","b_a montage/ba_176.jpg","82","image-keyboard-response","36","71544","0.0-3.0-1.16","","","Set_2_Only","r","true"
"null","<div style=""font-size:60px;"">+</div>","null","html-keyboard-response","37","72066","0.0-3.0-0.17","","fixation","","",""
"2035","a_b montage/ab_017.jpg","76","image-keyboard-response","38","74104","0.0-3.0-1.17","","","Set_1_Only","l","true"
"null","<div style=""font-size:60px;"">+</div>","null","html-keyboard-response","39","74618","0.0-3.0-0.18","","fixation","","",""
"3970","a_b montage/ab_069.jpg","76","image-keyboard-response","40","78591","0.0-3.0-1.18","","","Repeat","l","true"
"null","<div style=""font-size:60px;"">+</div>","null","html-keyboard-response","41","79102","0.0-3.0-0.19","","fixation","","",""
"2327","a_b montage/ab_100.jpg","76","image-keyboard-response","42","81432","0.0-3.0-1.19","","","Update","b","false"
"null","<div style=""font-size:60px;"">+</div>","null","html-keyboard-response","43","81941","0.0-3.0-0.20","","fixation","","",""
"1607","a_b new/ab_001.jpg","78","image-keyboard-response","44","83551","0.0-3.0-1.20","","","Neither","n","true"
"null","<div style=""font-size:60px;"">+</div>","null","html-keyboard-response","45","84062","0.0-3.0-0.21","","fixation","","",""
"2704","b_a montage/ba_013.jpg","82","image-keyboard-response","46","86768","0.0-3.0-1.21","","","Set_1_Only","r","true"
"null","<div style=""font-size:60px;"">+</div>","null","html-keyboard-response","47","87274","0.0-3.0-0.22","","fixation","","",""
"1885","a_b montage/ab_066.jpg","76","image-keyboard-response","48","89162","0.0-3.0-1.22","","","Repeat","l","true"
"null","<div style=""font-size:60px;"">+</div>","null","html-keyboard-response","49","89679","0.0-3.0-0.23","","fixation","","",""
"2568","b_a montage/ba_041.jpg","82","image-keyboard-response","50","92250","0.0-3.0-1.23","","","Repeat","r","true"
"null","<div style=""font-size:60px;"">+</div>","null","html-keyboard-response","51","92766","0.0-3.0-0.24","","fixation","","",""
"2488","b_a montage/ba_043.jpg","66","image-keyboard-response","52","95256","0.0-3.0-1.24","","","Repeat","r","false"
"null","<div style=""font-size:60px;"">+</div>","null","html-keyboard-response","53","95775","0.0-3.0-0.25","","fixation","","",""
"1897","a_b montage/ab_080.jpg","76","image-keyboard-response","54","97673","0.0-3.0-1.25","","","Repeat","l","true"
"null","<div style=""font-size:60px;"">+</div>","null","html-keyboard-response","55","98195","0.0-3.0-0.26","","fixation","","",""
"2203","a_b montage/ab_131.jpg","76","image-keyboard-response","56","100401","0.0-3.0-1.26","","","Update","b","false"
"null","<div style=""font-size:60px;"">+</div>","null","html-keyboard-response","57","100922","0.0-3.0-0.27","","fixation","","",""
"2238","a_b montage/ab_147.jpg","66","image-keyboard-response","58","103163","0.0-3.0-1.27","","","Update","b","true"
"null","<div style=""font-size:60px;"">+</div>","null","html-keyboard-response","59","103672","0.0-3.0-0.28","","fixation","","",""
"2366","b_a montage/ba_047.jpg","76","image-keyboard-response","60","106041","0.0-3.0-1.28","","","Repeat","r","false"
"null","<div style=""font-size:60px;"">+</div>","null","html-keyboard-response","61","106561","0.0-3.0-0.29","","fixation","","",""
"2505","b_a montage/ba_168.jpg","82","image-keyboard-response","62","109066","0.0-3.0-1.29","","","Set_2_Only","r","true"
"null","<div style=""font-size:60px;"">+</div>","null","html-keyboard-response","63","109584","0.0-3.0-0.30","","fixation","","",""
"1936","a_b montage/ab_104.jpg","82","image-keyboard-response","64","111522","0.0-3.0-1.30","","","Update","b","false"
"null","<div style=""font-size:60px;"">+</div>","null","html-keyboard-response","65","112041","0.0-3.0-0.31","","fixation","","",""
"2720","a_b montage/ab_159.jpg","66","image-keyboard-response","66","114762","0.0-3.0-1.31","","","Update","b","true"
"null","<div style=""font-size:60px;"">+</div>","null","html-keyboard-response","67","115284","0.0-3.0-0.32","","fixation","","",""
"2004","a_b montage/ab_091.jpg","76","image-keyboard-response","68","117291","0.0-3.0-1.32","","","Repeat","l","true"
"null","<div style=""font-size:60px;"">+</div>","null","html-keyboard-response","69","117804","0.0-3.0-0.33","","fixation","","",""
"2131","a_b montage/ab_185.jpg","76","image-keyboard-response","70","119938","0.0-3.0-1.33","","","Set_2_Only","l","true"
"null","<div style=""font-size:60px;"">+</div>","null","html-keyboard-response","71","120457","0.0-3.0-0.34","","fixation","","",""
"2007","a_b montage/ab_107.jpg","82","image-keyboard-response","72","122467","0.0-3.0-1.34","","","Update","b","false"
"null","<div style=""font-size:60px;"">+</div>","null","html-keyboard-response","73","122983","0.0-3.0-0.35","","fixation","","",""
"3352","b_a montage/ba_163.jpg","82","image-keyboard-response","74","126338","0.0-3.0-1.35","","","Set_2_Only","r","true"
"null","<div style=""font-size:60px;"">+</div>","null","html-keyboard-response","75","126861","0.0-3.0-0.36","","fixation","","",""
"1987","a_b new/ab_011.jpg","78","image-keyboard-response","76","128851","0.0-3.0-1.36","","","Neither","n","true"
"null","<div style=""font-size:60px;"">+</div>","null","html-keyboard-response","77","129366","0.0-3.0-0.37","","fixation","","",""
"2242","a_b montage/ab_182.jpg","76","image-keyboard-response","78","131610","0.0-3.0-1.37","","","Set_2_Only","l","true"
"null","<div style=""font-size:60px;"">+</div>","null","html-keyboard-response","79","132138","0.0-3.0-0.38","","fixation","","",""
"1688","a_b montage/ab_188.jpg","76","image-keyboard-response","80","133827","0.0-3.0-1.38","","","Set_2_Only","l","true"
"null","<div style=""font-size:60px;"">+</div>","null","html-keyboard-response","81","134332","0.0-3.0-0.39","","fixation","","",""
"2893","a_b montage/ab_099.jpg","76","image-keyboard-response","82","137227","0.0-3.0-1.39","","","Update","b","false"
"null","<div style=""font-size:60px;"">+</div>","null","html-keyboard-response","83","137749","0.0-3.0-0.40","","fixation","","",""
"2109","a_b montage/ab_127.jpg","82","image-keyboard-response","84","139860","0.0-3.0-1.40","","","Update","b","false"
"null","<div style=""font-size:60px;"">+</div>","null","html-keyboard-response","85","140369","0.0-3.0-0.41","","fixation","","",""
"2431","b_a montage/ba_050.jpg","82","image-keyboard-response","86","142803","0.0-3.0-1.41","","","Repeat","r","true"
"null","<div style=""font-size:60px;"">+</div>","null","html-keyboard-response","87","143313","0.0-3.0-0.42","","fixation","","",""
"3080","a_b montage/ab_142.jpg","66","image-keyboard-response","88","146396","0.0-3.0-1.42","","","Update","b","true"
"null","<div style=""font-size:60px;"">+</div>","null","html-keyboard-response","89","146922","0.0-3.0-0.43","","fixation","","",""
"2312","b_a montage/ba_056.jpg","66","image-keyboard-response","90","149236","0.0-3.0-1.43","","","Repeat","r","false"
"null","<div style=""font-size:60px;"">+</div>","null","html-keyboard-response","91","149758","0.0-3.0-0.44","","fixation","","",""
"2494","a_b montage/ab_150.jpg","66","image-keyboard-response","92","152253","0.0-3.0-1.44","","","Update","b","true"
"null","<div style=""font-size:60px;"">+</div>","null","html-keyboard-response","93","152766","0.0-3.0-0.45","","fixation","","",""
"2021","a_b montage/ab_020.jpg","76","image-keyboard-response","94","154789","0.0-3.0-1.45","","","Set_1_Only","l","true"
"null","<div style=""font-size:60px;"">+</div>","null","html-keyboard-response","95","155310","0.0-3.0-0.46","","fixation","","",""
"2437","a_b montage/ab_139.jpg","66","image-keyboard-response","96","157750","0.0-3.0-1.46","","","Update","b","true"
"null","<div style=""font-size:60px;"">+</div>","null","html-keyboard-response","97","158254","0.0-3.0-0.47","","fixation","","",""
"2115","a_b montage/ab_149.jpg","76","image-keyboard-response","98","160371","0.0-3.0-1.47","","","Update","b","false"
"null","<div style=""font-size:60px;"">+</div>","null","html-keyboard-response","99","160893","0.0-3.0-0.48","","fixation","","",""
"2085","a_b new/ab_003.jpg","78","image-keyboard-response","100","162981","0.0-3.0-1.48","","","Neither","n","true"
"null","<div style=""font-size:60px;"">+</div>","null","html-keyboard-response","101","163488","0.0-3.0-0.49","","fixation","","",""
"2067","a_b montage/ab_098.jpg","66","image-keyboard-response","102","165557","0.0-3.0-1.49","","","Update","b","true"
"null","<div style=""font-size:60px;"">+</div>","null","html-keyboard-response","103","166066","0.0-3.0-0.50","","fixation","","",""
"1985","a_b montage/ab_084.jpg","76","image-keyboard-response","104","168054","0.0-3.0-1.50","","","Repeat","l","true"
"null","<div style=""font-size:60px;"">+</div>","null","html-keyboard-response","105","168563","0.0-3.0-0.51","","fixation","","",""
"4480","a_b montage/ab_177.jpg","78","image-keyboard-response","106","173045","0.0-3.0-1.51","","","Set_2_Only","l","false"
"null","<div style=""font-size:60px;"">+</div>","null","html-keyboard-response","107","173558","0.0-3.0-0.52","","fixation","","",""
"2590","a_b montage/ab_111.jpg","76","image-keyboard-response","108","176150","0.0-3.0-1.52","","","Update","b","false"
"null","<div style=""font-size:60px;"">+</div>","null","html-keyboard-response","109","176671","0.0-3.0-0.53","","fixation","","",""
"2278","a_b montage/ab_090.jpg","76","image-keyboard-response","110","178950","0.0-3.0-1.53","","","Repeat","l","true"
"null","<div style=""font-size:60px;"">+</div>","null","html-keyboard-response","111","179465","0.0-3.0-0.54","","fixation","","",""
"2313","b_a montage/ba_012.jpg","82","image-keyboard-response","112","181781","0.0-3.0-1.54","","","Set_1_Only","r","true"
"null","<div style=""font-size:60px;"">+</div>","null","html-keyboard-response","113","182292","0.0-3.0-0.55","","fixation","","",""
"2249","b_a montage/ba_039.jpg","82","image-keyboard-response","114","184543","0.0-3.0-1.55","","","Repeat","r","true"
"null","<div style=""font-size:60px;"">+</div>","null","html-keyboard-response","115","185044","0.0-3.0-0.56","","fixation","","",""
"1967","a_b montage/ab_125.jpg","66","image-keyboard-response","116","187014","0.0-3.0-1.56","","","Update","b","true"
"null","<div style=""font-size:60px;"">+</div>","null","html-keyboard-response","117","187523","0.0-3.0-0.57","","fixation","","",""
"2788","b_a montage/ba_172.jpg","82","image-keyboard-response","118","190313","0.0-3.0-1.57","","","Set_2_Only","r","true"
"null","<div style=""font-size:60px;"">+</div>","null","html-keyboard-response","119","190833","0.0-3.0-0.58","","fixation","","",""
"2212","b_a montage/ba_046.jpg","66","image-keyboard-response","120","193048","0.0-3.0-1.58","","","Repeat","r","false"
"null","<div style=""font-size:60px;"">+</div>","null","html-keyboard-response","121","193563","0.0-3.0-0.59","","fixation","","",""
"2601","b_a montage/ba_004.jpg","82","image-keyboard-response","122","196167","0.0-3.0-1.59","","","Set_1_Only","r","true"
"null","<div style=""font-size:60px;"">+</div>","null","html-keyboard-response","123","196685","0.0-3.0-0.60","","fixation","","",""
"3832","b_a montage/ba_062.jpg","82","image-keyboard-response","124","200520","0.0-3.0-1.60","","","Repeat","r","true"
"null","<div style=""font-size:60px;"">+</div>","null","html-keyboard-response","125","201040","0.0-3.0-0.61","","fixation","","",""
"2276","b_a montage/ba_166.jpg","82","image-keyboard-response","126","203319","0.0-3.0-1.61","","","Set_2_Only","r","true"
"null","<div style=""font-size:60px;"">+</div>","null","html-keyboard-response","127","203830","0.0-3.0-0.62","","fixation","","",""
"1854","a_b montage/ab_148.jpg","82","image-keyboard-response","128","205686","0.0-3.0-1.62","","","Update","b","false"
"null","<div style=""font-size:60px;"">+</div>","null","html-keyboard-response","129","206203","0.0-3.0-0.63","","fixation","","",""
"2219","a_b montage/ab_108.jpg","66","image-keyboard-response","130","208424","0.0-3.0-1.63","","","Update","b","true"
"null","<div style=""font-size:60px;"">+</div>","null","html-keyboard-response","131","208939","0.0-3.0-0.64","","fixation","","",""
"1530","a_b new/ab_010.jpg","78","image-keyboard-response","132","210472","0.0-3.0-1.64","","","Neither","n","true"
"null","<div style=""font-size:60px;"">+</div>","null","html-keyboard-response","133","210980","0.0-3.0-0.65","","fixation","","",""
"2289","b_a montage/ba_011.jpg","76","image-keyboard-response","134","213271","0.0-3.0-1.65","","","Set_1_Only","r","false"
"null","<div style=""font-size:60px;"">+</div>","null","html-keyboard-response","135","213789","0.0-3.0-0.66","","fixation","","",""
"2016","a_b montage/ab_180.jpg","82","image-keyboard-response","136","215807","0.0-3.0-1.66","","","Set_2_Only","l","false"
"null","<div style=""font-size:60px;"">+</div>","null","html-keyboard-response","137","216324","0.0-3.0-0.67","","fixation","","",""
"null","b_a montage/ba_015.jpg","null","image-keyboard-response","138","226344","0.0-3.0-1.67","","","Set_1_Only","r","false"
"null","<div style=""font-size:60px;"">+</div>","null","html-keyboard-response","139","226865","0.0-3.0-0.68","","fixation","","",""
"2991","b_a montage/ba_058.jpg","82","image-keyboard-response","140","229857","0.0-3.0-1.68","","","Repeat","r","true"
"null","<div style=""font-size:60px;"">+</div>","null","html-keyboard-response","141","230384","0.0-3.0-0.69","","fixation","","",""
"2510","a_b montage/ab_154.jpg","82","image-keyboard-response","142","232896","0.0-3.0-1.69","","","Update","b","false"
"null","<div style=""font-size:60px;"">+</div>","null","html-keyboard-response","143","233415","0.0-3.0-0.70","","fixation","","",""
"3626","a_b montage/ab_112.jpg","82","image-keyboard-response","144","237044","0.0-3.0-1.70","","","Update","b","false"
"null","<div style=""font-size:60px;"">+</div>","null","html-keyboard-response","145","237568","0.0-3.0-0.71","","fixation","","",""
"null","a_b montage/ab_183.jpg","null","image-keyboard-response","146","247589","0.0-3.0-1.71","","","Set_2_Only","l","false"
"null","<div style=""font-size:60px;"">+</div>","null","html-keyboard-response","147","248111","0.0-3.0-0.72","","fixation","","",""
"1879","a_b montage/ab_192.jpg","76","image-keyboard-response","148","249993","0.0-3.0-1.72","","","Set_2_Only","l","true"
"null","<div style=""font-size:60px;"">+</div>","null","html-keyboard-response","149","250516","0.0-3.0-0.73","","fixation","","",""
"2043","a_b montage/ab_113.jpg","82","image-keyboard-response","150","252563","0.0-3.0-1.73","","","Update","b","false"
"null","<div style=""font-size:60px;"">+</div>","null","html-keyboard-response","151","253073","0.0-3.0-0.74","","fixation","","",""
"2304","b_a montage/ba_037.jpg","76","image-keyboard-response","152","255379","0.0-3.0-1.74","","","Repeat","r","false"
"null","<div style=""font-size:60px;"">+</div>","null","html-keyboard-response","153","255893","0.0-3.0-0.75","","fixation","","",""
"3003","a_b montage/ab_019.jpg","78","image-keyboard-response","154","258898","0.0-3.0-1.75","","","Set_1_Only","l","false"
"null","<div style=""font-size:60px;"">+</div>","null","html-keyboard-response","155","259404","0.0-3.0-0.76","","fixation","","",""
"2691","a_b montage/ab_018.jpg","76","image-keyboard-response","156","262098","0.0-3.0-1.76","","","Set_1_Only","l","true"
"null","<div style=""font-size:60px;"">+</div>","null","html-keyboard-response","157","262618","0.0-3.0-0.77","","fixation","","",""
"2991","a_b montage/ab_085.jpg","66","image-keyboard-response","158","265611","0.0-3.0-1.77","","","Repeat","l","false"
"null","<div style=""font-size:60px;"">+</div>","null","html-keyboard-response","159","266136","0.0-3.0-0.78","","fixation","","",""
"2721","b_a montage/ba_034.jpg","76","image-keyboard-response","160","268858","0.0-3.0-1.78","","","Repeat","r","false"
"null","<div style=""font-size:60px;"">+</div>","null","html-keyboard-response","161","269380","0.0-3.0-0.79","","fixation","","",""
"1460","a_b montage/ab_117.jpg","78","image-keyboard-response","162","270842","0.0-3.0-1.79","","","Update","b","false"
"null","<div style=""font-size:60px;"">+</div>","null","html-keyboard-response","163","271352","0.0-3.0-0.80","","fixation","","",""
"2064","a_b montage/ab_082.jpg","76","image-keyboard-response","164","273419","0.0-3.0-1.80","","","Repeat","l","true"
"null","<div style=""font-size:60px;"">+</div>","null","html-keyboard-response","165","273934","0.0-3.0-0.81","","fixation","","",""
"2316","a_b montage/ab_092.jpg","82","image-keyboard-response","166","276253","0.0-3.0-1.81","","","Repeat","l","false"
"null","<div style=""font-size:60px;"">+</div>","null","html-keyboard-response","167","276764","0.0-3.0-0.82","","fixation","","",""
"2558","b_a montage/ba_060.jpg","66","image-keyboard-response","168","279324","0.0-3.0-1.82","","","Repeat","r","false"
"null","<div style=""font-size:60px;"">+</div>","null","html-keyboard-response","169","279838","0.0-3.0-0.83","","fixation","","",""
"2004","b_a montage/ba_061.jpg","82","image-keyboard-response","170","281844","0.0-3.0-1.83","","","Repeat","r","true"
"null","<div style=""font-size:60px;"">+</div>","null","html-keyboard-response","171","282361","0.0-3.0-0.84","","fixation","","",""
"3615","a_b montage/ab_158.jpg","82","image-keyboard-response","172","285979","0.0-3.0-1.84","","","Update","b","false"
"null","<div style=""font-size:60px;"">+</div>","null","html-keyboard-response","173","286490","0.0-3.0-0.85","","fixation","","",""
"2304","a_b montage/ab_075.jpg","76","image-keyboard-response","174","288796","0.0-3.0-1.85","","","Repeat","l","true"
"null","<div style=""font-size:60px;"">+</div>","null","html-keyboard-response","175","289320","0.0-3.0-0.86","","fixation","","",""
"2708","a_b montage/ab_086.jpg","76","image-keyboard-response","176","292030","0.0-3.0-1.86","","","Repeat","l","true"
"null","<div style=""font-size:60px;"">+</div>","null","html-keyboard-response","177","292541","0.0-3.0-0.87","","fixation","","",""
"2012","a_b montage/ab_190.jpg","76","image-keyboard-response","178","294555","0.0-3.0-1.87","","","Set_2_Only","l","true"
"null","<div style=""font-size:60px;"">+</div>","null","html-keyboard-response","179","295082","0.0-3.0-0.88","","fixation","","",""
"3280","b_a montage/ba_055.jpg","82","image-keyboard-response","180","298365","0.0-3.0-1.88","","","Repeat","r","true"
"null","<div style=""font-size:60px;"">+</div>","null","html-keyboard-response","181","298869","0.0-3.0-0.89","","fixation","","",""
"2245","a_b montage/ab_135.jpg","66","image-keyboard-response","182","301117","0.0-3.0-1.89","","","Update","b","true"
"null","<div style=""font-size:60px;"">+</div>","null","html-keyboard-response","183","301638","0.0-3.0-0.90","","fixation","","",""
"2300","a_b montage/ab_137.jpg","82","image-keyboard-response","184","303942","0.0-3.0-1.90","","","Update","b","false"
"null","<div style=""font-size:60px;"">+</div>","null","html-keyboard-response","185","304460","0.0-3.0-0.91","","fixation","","",""
"1704","b_a montage/ba_006.jpg","78","image-keyboard-response","186","306166","0.0-3.0-1.91","","","Set_1_Only","r","false"
"null","<div style=""font-size:60px;"">+</div>","null","html-keyboard-response","187","306674","0.0-3.0-0.92","","fixation","","",""
"2449","b_a montage/ba_170.jpg","82","image-keyboard-response","188","309126","0.0-3.0-1.92","","","Set_2_Only","r","true"
"null","<div style=""font-size:60px;"">+</div>","null","html-keyboard-response","189","309652","0.0-3.0-0.93","","fixation","","",""
"2430","b_a montage/ba_051.jpg","82","image-keyboard-response","190","312085","0.0-3.0-1.93","","","Repeat","r","true"
"null","<div style=""font-size:60px;"">+</div>","null","html-keyboard-response","191","312589","0.0-3.0-0.94","","fixation","","",""
"2222","a_b montage/ab_128.jpg","82","image-keyboard-response","192","314814","0.0-3.0-1.94","","","Update","b","false"
"null","<div style=""font-size:60px;"">+</div>","null","html-keyboard-response","193","315321","0.0-3.0-0.95","","fixation","","",""
"1985","a_b montage/ab_145.jpg","82","image-keyboard-response","194","317310","0.0-3.0-1.95","","","Update","b","false"
"null","<div style=""font-size:60px;"">+</div>","null","html-keyboard-response","195","317819","0.0-3.0-0.96","","fixation","","",""
"2010","a_b montage/ab_031.jpg","78","image-keyboard-response","196","319832","0.0-3.0-1.96","","","Set_1_Only","l","false"
"null","<div style=""font-size:60px;"">+</div>","null","html-keyboard-response","197","320354","0.0-3.0-0.97","","fixation","","",""
"1818","a_b montage/ab_071.jpg","76","image-keyboard-response","198","322175","0.0-3.0-1.97","","","Repeat","l","true"
"null","<div style=""font-size:60px;"">+</div>","null","html-keyboard-response","199","322691","0.0-3.0-0.98","","fixation","","",""
"2663","b_a montage/ba_120.jpg","66","image-keyboard-response","200","325359","0.0-3.0-1.98","","","Update","b","true"
"null","<div style=""font-size:60px;"">+</div>","null","html-keyboard-response","201","325874","0.0-3.0-0.99","","fixation","","",""
"2939","b_a montage/ba_143.jpg","66","image-keyboard-response","202","328815","0.0-3.0-1.99","","","Update","b","true"
"null","<div style=""font-size:60px;"">+</div>","null","html-keyboard-response","203","329328","0.0-3.0-0.100","","fixation","","",""
"1980","b_a montage/ba_146.jpg","76","image-keyboard-response","204","331311","0.0-3.0-1.100","","","Update","b","false"
"null","<div style=""font-size:60px;"">+</div>","null","html-keyboard-response","205","331833","0.0-3.0-0.101","","fixation","","",""
"1859","a_b new/ab_015.jpg","78","image-keyboard-response","206","333695","0.0-3.0-1.101","","","Neither","n","true"
"null","<div style=""font-size:60px;"">+</div>","null","html-keyboard-response","207","334208","0.0-3.0-0.102","","fixation","","",""
"2093","b_a montage/ba_097.jpg","82","image-keyboard-response","208","336303","0.0-3.0-1.102","","","Update","b","false"
"null","<div style=""font-size:60px;"">+</div>","null","html-keyboard-response","209","336813","0.0-3.0-0.103","","fixation","","",""
"1755","b_a montage/ba_036.jpg","76","image-keyboard-response","210","338576","0.0-3.0-1.103","","","Repeat","r","false"
"null","<div style=""font-size:60px;"">+</div>","null","html-keyboard-response","211","339092","0.0-3.0-0.104","","fixation","","",""
"2531","b_a montage/ba_136.jpg","82","image-keyboard-response","212","341624","0.0-3.0-1.104","","","Update","b","false"
"null","<div style=""font-size:60px;"">+</div>","null","html-keyboard-response","213","342147","0.0-3.0-0.105","","fixation","","",""
"1858","a_b montage/ab_073.jpg","76","image-keyboard-response","214","344007","0.0-3.0-1.105","","","Repeat","l","true"
"null","<div style=""font-size:60px;"">+</div>","null","html-keyboard-response","215","344518","0.0-3.0-0.106","","fixation","","",""
"2286","b_a montage/ba_133.jpg","82","image-keyboard-response","216","346807","0.0-3.0-1.106","","","Update","b","false"
"null","<div style=""font-size:60px;"">+</div>","null","html-keyboard-response","217","347327","0.0-3.0-0.107","","fixation","","",""
"3168","b_a montage/ba_045.jpg","82","image-keyboard-response","218","350496","0.0-3.0-1.107","","","Repeat","r","true"
"null","<div style=""font-size:60px;"">+</div>","null","html-keyboard-response","219","351015","0.0-3.0-0.108","","fixation","","",""
"1583","a_b montage/ab_081.jpg","66","image-keyboard-response","220","352599","0.0-3.0-1.108","","","Repeat","l","false"
"null","<div style=""font-size:60px;"">+</div>","null","html-keyboard-response","221","353115","0.0-3.0-0.109","","fixation","","",""
"2037","a_b montage/ab_089.jpg","76","image-keyboard-response","222","355154","0.0-3.0-1.109","","","Repeat","l","true"
"null","<div style=""font-size:60px;"">+</div>","null","html-keyboard-response","223","355675","0.0-3.0-0.110","","fixation","","",""
"1346","a_b new/ab_005.jpg","78","image-keyboard-response","224","357024","0.0-3.0-1.110","","","Neither","n","true"
"null","<div style=""font-size:60px;"">+</div>","null","html-keyboard-response","225","357557","0.0-3.0-0.111","","fixation","","",""
"2211","b_a montage/ba_053.jpg","82","image-keyboard-response","226","359770","0.0-3.0-1.111","","","Repeat","r","true"
"null","<div style=""font-size:60px;"">+</div>","null","html-keyboard-response","227","360292","0.0-3.0-0.112","","fixation","","",""
"3450","b_a montage/ba_119.jpg","66","image-keyboard-response","228","363744","0.0-3.0-1.112","","","Update","b","true"
"null","<div style=""font-size:60px;"">+</div>","null","html-keyboard-response","229","364253","0.0-3.0-0.113","","fixation","","",""
"null","b_a montage/ba_171.jpg","null","image-keyboard-response","230","374277","0.0-3.0-1.113","","","Set_2_Only","r","false"
"null","<div style=""font-size:60px;"">+</div>","null","html-keyboard-response","231","374807","0.0-3.0-0.114","","fixation","","",""
"1592","b_a montage/ba_110.jpg","66","image-keyboard-response","232","376401","0.0-3.0-1.114","","","Update","b","true"
"null","<div style=""font-size:60px;"">+</div>","null","html-keyboard-response","233","376933","0.0-3.0-0.115","","fixation","","",""
"3251","b_a montage/ba_116.jpg","76","image-keyboard-response","234","380187","0.0-3.0-1.115","","","Update","b","false"
"null","<div style=""font-size:60px;"">+</div>","null","html-keyboard-response","235","380710","0.0-3.0-0.116","","fixation","","",""
"2775","a_b montage/ab_024.jpg","76","image-keyboard-response","236","383486","0.0-3.0-1.116","","","Set_1_Only","l","true"
"null","<div style=""font-size:60px;"">+</div>","null","html-keyboard-response","237","384004","0.0-3.0-0.117","","fixation","","",""
"2859","a_b montage/ab_026.jpg","76","image-keyboard-response","238","386865","0.0-3.0-1.117","","","Set_1_Only","l","true"
"null","<div style=""font-size:60px;"">+</div>","null","html-keyboard-response","239","387384","0.0-3.0-0.118","","fixation","","",""
"2350","b_a montage/ba_052.jpg","66","image-keyboard-response","240","389737","0.0-3.0-1.118","","","Repeat","r","false"
"null","<div style=""font-size:60px;"">+</div>","null","html-keyboard-response","241","390258","0.0-3.0-0.119","","fixation","","",""
"1910","a_b montage/ab_094.jpg","66","image-keyboard-response","242","392170","0.0-3.0-1.119","","","Repeat","l","false"
"null","<div style=""font-size:60px;"">+</div>","null","html-keyboard-response","243","392693","0.0-3.0-0.120","","fixation","","",""
"2161","b_a montage/ba_101.jpg","76","image-keyboard-response","244","394857","0.0-3.0-1.120","","","Update","b","false"
"null","<div style=""font-size:60px;"">+</div>","null","html-keyboard-response","245","395364","0.0-3.0-0.121","","fixation","","",""
"2482","b_a montage/ba_152.jpg","66","image-keyboard-response","246","397850","0.0-3.0-1.121","","","Update","b","true"
"null","<div style=""font-size:60px;"">+</div>","null","html-keyboard-response","247","398363","0.0-3.0-0.122","","fixation","","",""
"1806","a_b montage/ab_093.jpg","76","image-keyboard-response","248","400172","0.0-3.0-1.122","","","Repeat","l","true"
"null","<div style=""font-size:60px;"">+</div>","null","html-keyboard-response","249","400687","0.0-3.0-0.123","","fixation","","",""
"1554","a_b new/ab_007.jpg","78","image-keyboard-response","250","402244","0.0-3.0-1.123","","","Neither","n","true"
"null","<div style=""font-size:60px;"">+</div>","null","html-keyboard-response","251","402749","0.0-3.0-0.124","","fixation","","",""
"1756","b_a montage/ba_102.jpg","76","image-keyboard-response","252","404508","0.0-3.0-1.124","","","Update","b","false"
"null","<div style=""font-size:60px;"">+</div>","null","html-keyboard-response","253","405019","0.0-3.0-0.125","","fixation","","",""
"1391","a_b montage/ab_021.jpg","78","image-keyboard-response","254","406412","0.0-3.0-1.125","","","Set_1_Only","l","false"
"null","<div style=""font-size:60px;"">+</div>","null","html-keyboard-response","255","406928","0.0-3.0-0.126","","fixation","","",""
"2689","a_b montage/ab_065.jpg","66","image-keyboard-response","256","409620","0.0-3.0-1.126","","","Repeat","l","false"
"null","<div style=""font-size:60px;"">+</div>","null","html-keyboard-response","257","410133","0.0-3.0-0.127","","fixation","","",""
"1645","a_b new/ab_002.jpg","78","image-keyboard-response","258","411779","0.0-3.0-1.127","","","Neither","n","true"
"null","<div style=""font-size:60px;"">+</div>","null","html-keyboard-response","259","412300","0.0-3.0-0.128","","fixation","","",""
"1927","b_a montage/ba_057.jpg","82","image-keyboard-response","260","414229","0.0-3.0-1.128","","","Repeat","r","true"
"null","<div style=""font-size:60px;"">+</div>","null","html-keyboard-response","261","414736","0.0-3.0-0.129","","fixation","","",""
"2705","b_a montage/ba_167.jpg","82","image-keyboard-response","262","417444","0.0-3.0-1.129","","","Set_2_Only","r","true"
"null","<div style=""font-size:60px;"">+</div>","null","html-keyboard-response","263","417966","0.0-3.0-0.130","","fixation","","",""
"2843","b_a montage/ba_160.jpg","76","image-keyboard-response","264","420812","0.0-3.0-1.130","","","Update","b","false"
"null","<div style=""font-size:60px;"">+</div>","null","html-keyboard-response","265","421317","0.0-3.0-0.131","","fixation","","",""
"3428","b_a montage/ba_005.jpg","76","image-keyboard-response","266","424748","0.0-3.0-1.131","","","Set_1_Only","r","false"
"null","<div style=""font-size:60px;"">+</div>","null","html-keyboard-response","267","425250","0.0-3.0-0.132","","fixation","","",""
"2310","b_a montage/ba_140.jpg","76","image-keyboard-response","268","427564","0.0-3.0-1.132","","","Update","b","false"
"null","<div style=""font-size:60px;"">+</div>","null","html-keyboard-response","269","428087","0.0-3.0-0.133","","fixation","","",""
"1595","b_a new/ba_006.jpg","78","image-keyboard-response","270","429685","0.0-3.0-1.133","","","Neither","n","true"
"null","<div style=""font-size:60px;"">+</div>","null","html-keyboard-response","271","430205","0.0-3.0-0.134","","fixation","","",""
"2805","b_a montage/ba_123.jpg","82","image-keyboard-response","272","433012","0.0-3.0-1.134","","","Update","b","false"
"null","<div style=""font-size:60px;"">+</div>","null","html-keyboard-response","273","433552","0.0-3.0-0.135","","fixation","","",""
"2561","b_a montage/ba_033.jpg","76","image-keyboard-response","274","436117","0.0-3.0-1.135","","","Repeat","r","false"
"null","<div style=""font-size:60px;"">+</div>","null","html-keyboard-response","275","436641","0.0-3.0-0.136","","fixation","","",""
"1897","a_b montage/ab_077.jpg","76","image-keyboard-response","276","438540","0.0-3.0-1.136","","","Repeat","l","true"
"null","<div style=""font-size:60px;"">+</div>","null","html-keyboard-response","277","439059","0.0-3.0-0.137","","fixation","","",""
"1816","a_b montage/ab_032.jpg","76","image-keyboard-response","278","440877","0.0-3.0-1.137","","","Set_1_Only","l","true"
"null","<div style=""font-size:60px;"">+</div>","null","html-keyboard-response","279","441379","0.0-3.0-0.138","","fixation","","",""
"3585","b_a montage/ba_156.jpg","82","image-keyboard-response","280","444966","0.0-3.0-1.138","","","Update","b","false"
"null","<div style=""font-size:60px;"">+</div>","null","html-keyboard-response","281","445477","0.0-3.0-0.139","","fixation","","",""
"1686","a_b montage/ab_022.jpg","82","image-keyboard-response","282","447167","0.0-3.0-1.139","","","Set_1_Only","l","false"
"null","<div style=""font-size:60px;"">+</div>","null","html-keyboard-response","283","447684","0.0-3.0-0.140","","fixation","","",""
"2087","b_a montage/ba_114.jpg","82","image-keyboard-response","284","449774","0.0-3.0-1.140","","","Update","b","false"
"null","<div style=""font-size:60px;"">+</div>","null","html-keyboard-response","285","450277","0.0-3.0-0.141","","fixation","","",""
"1675","b_a new/ba_013.jpg","76","image-keyboard-response","286","451956","0.0-3.0-1.141","","","Neither","n","false"
"null","<div style=""font-size:60px;"">+</div>","null","html-keyboard-response","287","452474","0.0-3.0-0.142","","fixation","","",""
"2235","a_b montage/ab_023.jpg","76","image-keyboard-response","288","454711","0.0-3.0-1.142","","","Set_1_Only","l","true"
"null","<div style=""font-size:60px;"">+</div>","null","html-keyboard-response","289","455235","0.0-3.0-0.143","","fixation","","",""
"1568","a_b montage/ab_087.jpg","76","image-keyboard-response","290","456805","0.0-3.0-1.143","","","Repeat","l","true"
"null","<div style=""font-size:60px;"">+</div>","null","html-keyboard-response","291","457311","0.0-3.0-0.144","","fixation","","",""
"1982","b_a montage/ba_155.jpg","82","image-keyboard-response","292","459297","0.0-3.0-1.144","","","Update","b","false"
"null","<div style=""font-size:60px;"">+</div>","null","html-keyboard-response","293","459821","0.0-3.0-0.145","","fixation","","",""
"2023","b_a montage/ba_002.jpg","82","image-keyboard-response","294","461846","0.0-3.0-1.145","","","Set_1_Only","r","true"
"null","<div style=""font-size:60px;"">+</div>","null","html-keyboard-response","295","462377","0.0-3.0-0.146","","fixation","","",""
"1883","b_a montage/ba_161.jpg","82","image-keyboard-response","296","464262","0.0-3.0-1.146","","","Set_2_Only","r","true"
"null","<div style=""font-size:60px;"">+</div>","null","html-keyboard-response","297","464782","0.0-3.0-0.147","","fixation","","",""
"2510","a_b montage/ab_029.jpg","76","image-keyboard-response","298","467294","0.0-3.0-1.147","","","Set_1_Only","l","true"
"null","<div style=""font-size:60px;"">+</div>","null","html-keyboard-response","299","467809","0.0-3.0-0.148","","fixation","","",""
"1755","a_b montage/ab_030.jpg","66","image-keyboard-response","300","469568","0.0-3.0-1.148","","","Set_1_Only","l","false"
"null","<div style=""font-size:60px;"">+</div>","null","html-keyboard-response","301","470081","0.0-3.0-0.149","","fixation","","",""
"1498","b_a new/ba_004.jpg","78","image-keyboard-response","302","471582","0.0-3.0-1.149","","","Neither","n","true"
"null","<div style=""font-size:60px;"">+</div>","null","html-keyboard-response","303","472099","0.0-3.0-0.150","","fixation","","",""
"1642","b_a montage/ba_049.jpg","82","image-keyboard-response","304","473744","0.0-3.0-1.150","","","Repeat","r","true"
"null","<div style=""font-size:60px;"">+</div>","null","html-keyboard-response","305","474260","0.0-3.0-0.151","","fixation","","",""
"2062","a_b montage/ab_027.jpg","76","image-keyboard-response","306","476326","0.0-3.0-1.151","","","Set_1_Only","l","true"
"null","<div style=""font-size:60px;"">+</div>","null","html-keyboard-response","307","476847","0.0-3.0-0.152","","fixation","","",""
"1996","b_a montage/ba_008.jpg","66","image-keyboard-response","308","478847","0.0-3.0-1.152","","","Set_1_Only","r","false"
"null","<div style=""font-size:60px;"">+</div>","null","html-keyboard-response","309","479363","0.0-3.0-0.153","","fixation","","",""
"2130","b_a montage/ba_048.jpg","82","image-keyboard-response","310","481495","0.0-3.0-1.153","","","Repeat","r","true"
"null","<div style=""font-size:60px;"">+</div>","null","html-keyboard-response","311","482013","0.0-3.0-0.154","","fixation","","",""
"1592","a_b montage/ab_191.jpg","78","image-keyboard-response","312","483608","0.0-3.0-1.154","","","Set_2_Only","l","false"
"null","<div style=""font-size:60px;"">+</div>","null","html-keyboard-response","313","484130","0.0-3.0-0.155","","fixation","","",""
"1577","a_b montage/ab_186.jpg","76","image-keyboard-response","314","485711","0.0-3.0-1.155","","","Set_2_Only","l","true"
"null","<div style=""font-size:60px;"">+</div>","null","html-keyboard-response","315","486221","0.0-3.0-0.156","","fixation","","",""
"1696","b_a montage/ba_157.jpg","66","image-keyboard-response","316","487919","0.0-3.0-1.156","","","Update","b","true"
"null","<div style=""font-size:60px;"">+</div>","null","html-keyboard-response","317","488445","0.0-3.0-0.157","","fixation","","",""
"1895","a_b montage/ab_072.jpg","76","image-keyboard-response","318","490343","0.0-3.0-1.157","","","Repeat","l","true"
"null","<div style=""font-size:60px;"">+</div>","null","html-keyboard-response","319","490864","0.0-3.0-0.158","","fixation","","",""
"2782","b_a montage/ba_173.jpg","76","image-keyboard-response","320","493648","0.0-3.0-1.158","","","Set_2_Only","r","false"
"null","<div style=""font-size:60px;"">+</div>","null","html-keyboard-response","321","494154","0.0-3.0-0.159","","fixation","","",""
"1738","a_b montage/ab_187.jpg","78","image-keyboard-response","322","495895","0.0-3.0-1.159","","","Set_2_Only","l","false"
"null","<div style=""font-size:60px;"">+</div>","null","html-keyboard-response","323","496411","0.0-3.0-0.160","","fixation","","",""
"1649","b_a montage/ba_016.jpg","78","image-keyboard-response","324","498063","0.0-3.0-1.160","","","Set_1_Only","r","false"
"null","<div style=""font-size:60px;"">+</div>","null","html-keyboard-response","325","498585","0.0-3.0-0.161","","fixation","","",""
"2117","a_b montage/ab_095.jpg","78","image-keyboard-response","326","500706","0.0-3.0-1.161","","","Repeat","l","false"
"null","<div style=""font-size:60px;"">+</div>","null","html-keyboard-response","327","501243","0.0-3.0-0.162","","fixation","","",""
"1978","a_b montage/ab_178.jpg","76","image-keyboard-response","328","503224","0.0-3.0-1.162","","","Set_2_Only","l","true"
"null","<div style=""font-size:60px;"">+</div>","null","html-keyboard-response","329","503737","0.0-3.0-0.163","","fixation","","",""
"1533","b_a new/ba_014.jpg","78","image-keyboard-response","330","505273","0.0-3.0-1.163","","","Neither","n","true"
"null","<div style=""font-size:60px;"">+</div>","null","html-keyboard-response","331","505791","0.0-3.0-0.164","","fixation","","",""
"1918","b_a montage/ba_126.jpg","82","image-keyboard-response","332","507713","0.0-3.0-1.164","","","Update","b","false"
"null","<div style=""font-size:60px;"">+</div>","null","html-keyboard-response","333","508225","0.0-3.0-0.165","","fixation","","",""
"1885","b_a montage/ba_134.jpg","76","image-keyboard-response","334","510112","0.0-3.0-1.165","","","Update","b","false"
"null","<div style=""font-size:60px;"">+</div>","null","html-keyboard-response","335","510629","0.0-3.0-0.166","","fixation","","",""
"2204","b_a montage/ba_162.jpg","76","image-keyboard-response","336","512834","0.0-3.0-1.166","","","Set_2_Only","r","false"
"null","<div style=""font-size:60px;"">+</div>","null","html-keyboard-response","337","513348","0.0-3.0-0.167","","fixation","","",""
"1753","b_a montage/ba_003.jpg","78","image-keyboard-response","338","515105","0.0-3.0-1.167","","","Set_1_Only","r","false"
"null","<div style=""font-size:60px;"">+</div>","null","html-keyboard-response","339","515621","0.0-3.0-0.168","","fixation","","",""
"2403","b_a montage/ba_007.jpg","76","image-keyboard-response","340","518026","0.0-3.0-1.168","","","Set_1_Only","r","false"
"null","<div style=""font-size:60px;"">+</div>","null","html-keyboard-response","341","518543","0.0-3.0-0.169","","fixation","","",""
"2239","b_a montage/ba_063.jpg","82","image-keyboard-response","342","520784","0.0-3.0-1.169","","","Repeat","r","true"
"null","<div style=""font-size:60px;"">+</div>","null","html-keyboard-response","343","521308","0.0-3.0-0.170","","fixation","","",""
"2988","b_a montage/ba_132.jpg","76","image-keyboard-response","344","524298","0.0-3.0-1.170","","","Update","b","false"
"null","<div style=""font-size:60px;"">+</div>","null","html-keyboard-response","345","524809","0.0-3.0-0.171","","fixation","","",""
"1718","a_b montage/ab_096.jpg","76","image-keyboard-response","346","526531","0.0-3.0-1.171","","","Repeat","l","true"
"null","<div style=""font-size:60px;"">+</div>","null","html-keyboard-response","347","527035","0.0-3.0-0.172","","fixation","","",""
"2103","b_a montage/ba_014.jpg","76","image-keyboard-response","348","529139","0.0-3.0-1.172","","","Set_1_Only","r","false"
"null","<div style=""font-size:60px;"">+</div>","null","html-keyboard-response","349","529665","0.0-3.0-0.173","","fixation","","",""
"2872","b_a montage/ba_105.jpg","76","image-keyboard-response","350","532541","0.0-3.0-1.173","","","Update","b","false"
"null","<div style=""font-size:60px;"">+</div>","null","html-keyboard-response","351","533056","0.0-3.0-0.174","","fixation","","",""
"2839","b_a montage/ba_054.jpg","66","image-keyboard-response","352","535898","0.0-3.0-1.174","","","Repeat","r","false"
"null","<div style=""font-size:60px;"">+</div>","null","html-keyboard-response","353","536413","0.0-3.0-0.175","","fixation","","",""
"1978","b_a montage/ba_042.jpg","82","image-keyboard-response","354","538395","0.0-3.0-1.175","","","Repeat","r","true"
"null","<div style=""font-size:60px;"">+</div>","null","html-keyboard-response","355","538917","0.0-3.0-0.176","","fixation","","",""
"1580","a_b montage/ab_074.jpg","76","image-keyboard-response","356","540500","0.0-3.0-1.176","","","Repeat","l","true"
"null","<div style=""font-size:60px;"">+</div>","null","html-keyboard-response","357","541014","0.0-3.0-0.177","","fixation","","",""
"2170","a_b montage/ab_083.jpg","76","image-keyboard-response","358","543187","0.0-3.0-1.177","","","Repeat","l","true"
"null","<div style=""font-size:60px;"">+</div>","null","html-keyboard-response","359","543708","0.0-3.0-0.178","","fixation","","",""
"2044","b_a montage/ba_144.jpg","76","image-keyboard-response","360","545755","0.0-3.0-1.178","","","Update","b","false"
"null","<div style=""font-size:60px;"">+</div>","null","html-keyboard-response","361","546274","0.0-3.0-0.179","","fixation","","",""
"1871","a_b montage/ab_078.jpg","76","image-keyboard-response","362","548148","0.0-3.0-1.179","","","Repeat","l","true"
"null","<div style=""font-size:60px;"">+</div>","null","html-keyboard-response","363","548666","0.0-3.0-0.180","","fixation","","",""
"2095","a_b montage/ab_184.jpg","76","image-keyboard-response","364","550763","0.0-3.0-1.180","","","Set_2_Only","l","true"
"null","<div style=""font-size:60px;"">+</div>","null","html-keyboard-response","365","551273","0.0-3.0-0.181","","fixation","","",""
"2143","b_a montage/ba_121.jpg","76","image-keyboard-response","366","553419","0.0-3.0-1.181","","","Update","b","false"
"null","<div style=""font-size:60px;"">+</div>","null","html-keyboard-response","367","553939","0.0-3.0-0.182","","fixation","","",""
"2345","b_a montage/ba_001.jpg","82","image-keyboard-response","368","556286","0.0-3.0-1.182","","","Set_1_Only","r","true"
"null","<div style=""font-size:60px;"">+</div>","null","html-keyboard-response","369","556789","0.0-3.0-0.183","","fixation","","",""
"1820","b_a montage/ba_106.jpg","76","image-keyboard-response","370","558611","0.0-3.0-1.183","","","Update","b","false"
"null","<div style=""font-size:60px;"">+</div>","null","html-keyboard-response","371","559127","0.0-3.0-0.184","","fixation","","",""
"2095","b_a montage/ba_122.jpg","76","image-keyboard-response","372","561227","0.0-3.0-1.184","","","Update","b","false"
"null","<div style=""font-size:60px;"">+</div>","null","html-keyboard-response","373","561734","0.0-3.0-0.185","","fixation","","",""
"2875","b_a montage/ba_064.jpg","82","image-keyboard-response","374","564612","0.0-3.0-1.185","","","Repeat","r","true"
"null","<div style=""font-size:60px;"">+</div>","null","html-keyboard-response","375","565130","0.0-3.0-0.186","","fixation","","",""
"2151","b_a montage/ba_059.jpg","82","image-keyboard-response","376","567284","0.0-3.0-1.186","","","Repeat","r","true"
"null","<div style=""font-size:60px;"">+</div>","null","html-keyboard-response","377","567808","0.0-3.0-0.187","","fixation","","",""
"1761","b_a montage/ba_175.jpg","76","image-keyboard-response","378","569572","0.0-3.0-1.187","","","Set_2_Only","r","false"
"null","<div style=""font-size:60px;"">+</div>","null","html-keyboard-response","379","570095","0.0-3.0-0.188","","fixation","","",""
"2690","b_a montage/ba_169.jpg","82","image-keyboard-response","380","572788","0.0-3.0-1.188","","","Set_2_Only","r","true"
"null","<div style=""font-size:60px;"">+</div>","null","html-keyboard-response","381","573299","0.0-3.0-0.189","","fixation","","",""
"2296","b_a montage/ba_151.jpg","76","image-keyboard-response","382","575597","0.0-3.0-1.189","","","Update","b","false"
"null","<div style=""font-size:60px;"">+</div>","null","html-keyboard-response","383","576113","0.0-3.0-0.190","","fixation","","",""
"1874","b_a montage/ba_010.jpg","82","image-keyboard-response","384","577990","0.0-3.0-1.190","","","Set_1_Only","r","true"
"null","<div style=""font-size:60px;"">+</div>","null","html-keyboard-response","385","578493","0.0-3.0-0.191","","fixation","","",""
"2286","b_a montage/ba_164.jpg","82","image-keyboard-response","386","580783","0.0-3.0-1.191","","","Set_2_Only","r","true"
"null","<div style=""font-size:60px;"">+</div>","null","html-keyboard-response","387","581303","0.0-3.0-0.192","","fixation","","",""
"3020","a_b montage/ab_070.jpg","82","image-keyboard-response","388","584325","0.0-3.0-1.192","","","Repeat","l","false"
"null","<div style=""font-size:60px;"">+</div>","null","html-keyboard-response","389","584840","0.0-3.0-0.193","","fixation","","",""
"2787","b_a montage/ba_044.jpg","82","image-keyboard-response","390","587629","0.0-3.0-1.193","","","Repeat","r","true"
"null","<div style=""font-size:60px;"">+</div>","null","html-keyboard-response","391","588149","0.0-3.0-0.194","","fixation","","",""
"2503","b_a montage/ba_035.jpg","82","image-keyboard-response","392","590653","0.0-3.0-1.194","","","Repeat","r","true"
"null","<div style=""font-size:60px;"">+</div>","null","html-keyboard-response","393","591162","0.0-3.0-0.195","","fixation","","",""
"2281","b_a montage/ba_040.jpg","66","image-keyboard-response","394","593446","0.0-3.0-1.195","","","Repeat","r","false"
"null","<div style=""font-size:60px;"">+</div>","null","html-keyboard-response","395","593963","0.0-3.0-0.196","","fixation","","",""
"2177","b_a montage/ba_124.jpg","66","image-keyboard-response","396","596142","0.0-3.0-1.196","","","Update","b","true"
"null","<div style=""font-size:60px;"">+</div>","null","html-keyboard-response","397","596647","0.0-3.0-0.197","","fixation","","",""
"2211","a_b montage/ab_025.jpg","82","image-keyboard-response","398","598862","0.0-3.0-1.197","","","Set_1_Only","l","false"
"null","<div style=""font-size:60px;"">+</div>","null","html-keyboard-response","399","599400","0.0-3.0-0.198","","fixation","","",""
"1468","b_a montage/ba_165.jpg","82","image-keyboard-response","400","600872","0.0-3.0-1.198","","","Set_2_Only","r","true"
"null","<div style=""font-size:60px;"">+</div>","null","html-keyboard-response","401","601381","0.0-3.0-0.199","","fixation","","",""
"1760","b_a montage/ba_138.jpg","76","image-keyboard-response","402","603143","0.0-3.0-1.199","","","Update","b","false"
"null","<div style=""font-size:60px;"">+</div>","null","html-keyboard-response","403","603657","0.0-3.0-0.200","","fixation","","",""
"2075","a_b montage/ab_028.jpg","76","image-keyboard-response","404","605736","0.0-3.0-1.200","","","Set_1_Only","l","true"
"null","<div style=""font-size:60px;"">+</div>","null","html-keyboard-response","405","606250","0.0-3.0-0.201","","fixation","","",""
"2762","a_b montage/ab_076.jpg","76","image-keyboard-response","406","609014","0.0-3.0-1.201","","","Repeat","l","true"
"null","<div style=""font-size:60px;"">+</div>","null","html-keyboard-response","407","609537","0.0-3.0-0.202","","fixation","","",""
"2515","b_a new/ba_012.jpg","78","image-keyboard-response","408","612055","0.0-3.0-1.202","","","Neither","n","true"
"null","<div style=""font-size:60px;"">+</div>","null","html-keyboard-response","409","612571","0.0-3.0-0.203","","fixation","","",""
"2510","a_b montage/ab_068.jpg","76","image-keyboard-response","410","615083","0.0-3.0-1.203","","","Repeat","l","true"
"null","<div style=""font-size:60px;"">+</div>","null","html-keyboard-response","411","615607","0.0-3.0-0.204","","fixation","","",""
"2613","b_a montage/ba_115.jpg","82","image-keyboard-response","412","618222","0.0-3.0-1.204","","","Update","b","false"
"null","<div style=""font-size:60px;"">+</div>","null","html-keyboard-response","413","618738","0.0-3.0-0.205","","fixation","","",""
"1987","b_a montage/ba_118.jpg","76","image-keyboard-response","414","620727","0.0-3.0-1.205","","","Update","b","false"
"null","<div style=""font-size:60px;"">+</div>","null","html-keyboard-response","415","621241","0.0-3.0-0.206","","fixation","","",""
"2163","a_b montage/ab_189.jpg","76","image-keyboard-response","416","623408","0.0-3.0-1.206","","","Set_2_Only","l","true"
"null","<div style=""font-size:60px;"">+</div>","null","html-keyboard-response","417","623930","0.0-3.0-0.207","","fixation","","",""
"1666","b_a new/ba_009.jpg","78","image-keyboard-response","418","625599","0.0-3.0-1.207","","","Neither","n","true"
