"rt","stimulus","key_press","trial_type","trial_index","time_elapsed","internal_node_id","responses","test_part","stim_type","correct_response","correct"
"2535","Press any key to begin.","13","html-keyboard-response","0","2541","0.0-0.0","","","","",""
"6186","","","survey-text","1","8729","0.0-1.0","{""Q0"":""Test128190"",""Q1"":""""}","","","",""
"24585","<p>For this phase you will see two similar images side by side on the screen I want you to tell us which of the items you have seen before in any of the previous sets of images. </p><p>If you have only seen the image on the left you will press the 'L' key on your keyboard.</p>If you have only seen the image on the right you will press the 'R' key on your keyboard.</p>If you have previously seen both of the images you will press the 'B' key on your keyboard.</p>If you have not seen either image you will press the 'N' key on your keyboard.</p><div style='width: 700px;'></div><p>Press any key to begin.</p>","13","html-keyboard-response","2","33315","0.0-2.0","","","","",""
"null","<div style=""font-size:60px;"">+</div>","null","html-keyboard-response","3","35854","0.0-3.0-0.0","","fixation","","",""
"2675","b_a montage/ba_038.jpg","66","image-keyboard-response","4","38531","0.0-3.0-1.0","","","Repeat","r","false"
"null","<div style=""font-size:60px;"">+</div>","null","html-keyboard-response","5","39054","0.0-3.0-0.1","","fixation","","",""
"2058","a_b new/ab_008.jpg","78","image-keyboard-response","6","41115","0.0-3.0-1.1","","","Neither","n","true"
"null","<div style=""font-size:60px;"">+</div>","null","html-keyboard-response","7","41635","0.0-3.0-0.2","","fixation","","",""
"1855","a_b montage/ab_109.jpg","66","image-keyboard-response","8","43491","0.0-3.0-1.2","","","Update","b","true"
"null","<div style=""font-size:60px;"">+</div>","null","html-keyboard-response","9","44010","0.0-3.0-0.3","","fixation","","",""
"982","a_b montage/ab_088.jpg","66","image-keyboard-response","10","44995","0.0-3.0-1.3","","","Repeat","l","false"
"null","<div style=""font-size:60px;"">+</div>","null","html-keyboard-response","11","45510","0.0-3.0-0.4","","fixation","","",""
"2603","a_b montage/ab_067.jpg","82","image-keyboard-response","12","48115","0.0-3.0-1.4","","","Repeat","l","false"
"null","<div style=""font-size:60px;"">+</div>","null","html-keyboard-response","13","48619","0.0-3.0-0.5","","fixation","","",""
"4693","b_a montage/ba_174.jpg","66","image-keyboard-response","14","53315","0.0-3.0-1.5","","","Set_2_Only","r","false"
"null","<div style=""font-size:60px;"">+</div>","null","html-keyboard-response","15","53837","0.0-3.0-0.6","","fixation","","",""
"1698","a_b montage/ab_103.jpg","66","image-keyboard-response","16","55538","0.0-3.0-1.6","","","Update","b","true"
"null","<div style=""font-size:60px;"">+</div>","null","html-keyboard-response","17","56043","0.0-3.0-0.7","","fixation","","",""
"1405","a_b montage/ab_129.jpg","66","image-keyboard-response","18","57451","0.0-3.0-1.7","","","Update","b","true"
"null","<div style=""font-size:60px;"">+</div>","null","html-keyboard-response","19","57964","0.0-3.0-0.8","","fixation","","",""
"2019","a_b montage/ab_130.jpg","66","image-keyboard-response","20","59986","0.0-3.0-1.8","","","Update","b","true"
"null","<div style=""font-size:60px;"">+</div>","null","html-keyboard-response","21","60496","0.0-3.0-0.9","","fixation","","",""
"2121","a_b montage/ab_181.jpg","78","image-keyboard-response","22","62619","0.0-3.0-1.9","","","Set_2_Only","l","false"
"null","<div style=""font-size:60px;"">+</div>","null","html-keyboard-response","23","63121","0.0-3.0-0.10","","fixation","","",""
"3200","a_b montage/ab_179.jpg","76","image-keyboard-response","24","66323","0.0-3.0-1.10","","","Set_2_Only","l","true"
"null","<div style=""font-size:60px;"">+</div>","null","html-keyboard-response","25","66840","0.0-3.0-0.11","","fixation","","",""
"2216","a_b new/ab_016.jpg","78","image-keyboard-response","26","69059","0.0-3.0-1.11","","","Neither","n","true"
"null","<div style=""font-size:60px;"">+</div>","null","html-keyboard-response","27","69574","0.0-3.0-0.12","","fixation","","",""
"2075","a_b montage/ab_153.jpg","66","image-keyboard-response","28","71651","0.0-3.0-1.12","","","Update","b","true"
"null","<div style=""font-size:60px;"">+</div>","null","html-keyboard-response","29","72153","0.0-3.0-0.13","","fixation","","",""
"1960","b_a montage/ba_009.jpg","66","image-keyboard-response","30","74115","0.0-3.0-1.13","","","Set_1_Only","r","false"
"null","<div style=""font-size:60px;"">+</div>","null","html-keyboard-response","31","74621","0.0-3.0-0.14","","fixation","","",""
"1355","a_b montage/ab_141.jpg","66","image-keyboard-response","32","75979","0.0-3.0-1.14","","","Update","b","true"
"null","<div style=""font-size:60px;"">+</div>","null","html-keyboard-response","33","76496","0.0-3.0-0.15","","fixation","","",""
"2544","a_b montage/ab_079.jpg","76","image-keyboard-response","34","79043","0.0-3.0-1.15","","","Repeat","l","true"
"null","<div style=""font-size:60px;"">+</div>","null","html-keyboard-response","35","79559","0.0-3.0-0.16","","fixation","","",""
"2441","b_a montage/ba_176.jpg","66","image-keyboard-response","36","82003","0.0-3.0-1.16","","","Set_2_Only","r","false"
"null","<div style=""font-size:60px;"">+</div>","null","html-keyboard-response","37","82519","0.0-3.0-0.17","","fixation","","",""
"2616","a_b montage/ab_017.jpg","66","image-keyboard-response","38","85138","0.0-3.0-1.17","","","Set_1_Only","l","false"
"null","<div style=""font-size:60px;"">+</div>","null","html-keyboard-response","39","85653","0.0-3.0-0.18","","fixation","","",""
"2411","a_b montage/ab_069.jpg","66","image-keyboard-response","40","88067","0.0-3.0-1.18","","","Repeat","l","false"
"null","<div style=""font-size:60px;"">+</div>","null","html-keyboard-response","41","88575","0.0-3.0-0.19","","fixation","","",""
"2198","a_b montage/ab_100.jpg","76","image-keyboard-response","42","90778","0.0-3.0-1.19","","","Update","b","false"
"null","<div style=""font-size:60px;"">+</div>","null","html-keyboard-response","43","91295","0.0-3.0-0.20","","fixation","","",""
"2145","a_b new/ab_001.jpg","78","image-keyboard-response","44","93443","0.0-3.0-1.20","","","Neither","n","true"
"null","<div style=""font-size:60px;"">+</div>","null","html-keyboard-response","45","93951","0.0-3.0-0.21","","fixation","","",""
"2888","b_a montage/ba_013.jpg","82","image-keyboard-response","46","96842","0.0-3.0-1.21","","","Set_1_Only","r","true"
"null","<div style=""font-size:60px;"">+</div>","null","html-keyboard-response","47","97353","0.0-3.0-0.22","","fixation","","",""
"3079","a_b montage/ab_066.jpg","66","image-keyboard-response","48","100434","0.0-3.0-1.22","","","Repeat","l","false"
"null","<div style=""font-size:60px;"">+</div>","null","html-keyboard-response","49","100949","0.0-3.0-0.23","","fixation","","",""
"4323","b_a montage/ba_041.jpg","82","image-keyboard-response","50","105275","0.0-3.0-1.23","","","Repeat","r","true"
"null","<div style=""font-size:60px;"">+</div>","null","html-keyboard-response","51","105803","0.0-3.0-0.24","","fixation","","",""
"2396","b_a montage/ba_043.jpg","66","image-keyboard-response","52","108202","0.0-3.0-1.24","","","Repeat","r","false"
"null","<div style=""font-size:60px;"">+</div>","null","html-keyboard-response","53","108708","0.0-3.0-0.25","","fixation","","",""
"1774","a_b montage/ab_080.jpg","66","image-keyboard-response","54","110482","0.0-3.0-1.25","","","Repeat","l","false"
"null","<div style=""font-size:60px;"">+</div>","null","html-keyboard-response","55","110988","0.0-3.0-0.26","","fixation","","",""
"1467","a_b montage/ab_131.jpg","66","image-keyboard-response","56","112458","0.0-3.0-1.26","","","Update","b","true"
"null","<div style=""font-size:60px;"">+</div>","null","html-keyboard-response","57","112973","0.0-3.0-0.27","","fixation","","",""
"1499","a_b montage/ab_147.jpg","66","image-keyboard-response","58","114475","0.0-3.0-1.27","","","Update","b","true"
"null","<div style=""font-size:60px;"">+</div>","null","html-keyboard-response","59","114989","0.0-3.0-0.28","","fixation","","",""
"3388","b_a montage/ba_047.jpg","82","image-keyboard-response","60","118379","0.0-3.0-1.28","","","Repeat","r","true"
"null","<div style=""font-size:60px;"">+</div>","null","html-keyboard-response","61","118896","0.0-3.0-0.29","","fixation","","",""
"3472","b_a montage/ba_168.jpg","76","image-keyboard-response","62","122370","0.0-3.0-1.29","","","Set_2_Only","r","false"
"null","<div style=""font-size:60px;"">+</div>","null","html-keyboard-response","63","122880","0.0-3.0-0.30","","fixation","","",""
"2024","a_b montage/ab_104.jpg","66","image-keyboard-response","64","124906","0.0-3.0-1.30","","","Update","b","true"
"null","<div style=""font-size:60px;"">+</div>","null","html-keyboard-response","65","125419","0.0-3.0-0.31","","fixation","","",""
"3837","a_b montage/ab_159.jpg","82","image-keyboard-response","66","129259","0.0-3.0-1.31","","","Update","b","false"
"null","<div style=""font-size:60px;"">+</div>","null","html-keyboard-response","67","129771","0.0-3.0-0.32","","fixation","","",""
"3997","a_b montage/ab_091.jpg","82","image-keyboard-response","68","133770","0.0-3.0-1.32","","","Repeat","l","false"
"null","<div style=""font-size:60px;"">+</div>","null","html-keyboard-response","69","134287","0.0-3.0-0.33","","fixation","","",""
"4919","a_b montage/ab_185.jpg","76","image-keyboard-response","70","139211","0.0-3.0-1.33","","","Set_2_Only","l","true"
"null","<div style=""font-size:60px;"">+</div>","null","html-keyboard-response","71","139736","0.0-3.0-0.34","","fixation","","",""
"1784","a_b montage/ab_107.jpg","78","image-keyboard-response","72","141523","0.0-3.0-1.34","","","Update","b","false"
"null","<div style=""font-size:60px;"">+</div>","null","html-keyboard-response","73","142053","0.0-3.0-0.35","","fixation","","",""
"2810","b_a montage/ba_163.jpg","66","image-keyboard-response","74","144866","0.0-3.0-1.35","","","Set_2_Only","r","false"
"null","<div style=""font-size:60px;"">+</div>","null","html-keyboard-response","75","145381","0.0-3.0-0.36","","fixation","","",""
"1860","a_b new/ab_011.jpg","78","image-keyboard-response","76","147242","0.0-3.0-1.36","","","Neither","n","true"
"null","<div style=""font-size:60px;"">+</div>","null","html-keyboard-response","77","147757","0.0-3.0-0.37","","fixation","","",""
"3515","a_b montage/ab_182.jpg","78","image-keyboard-response","78","151274","0.0-3.0-1.37","","","Set_2_Only","l","false"
"null","<div style=""font-size:60px;"">+</div>","null","html-keyboard-response","79","151787","0.0-3.0-0.38","","fixation","","",""
"3741","a_b montage/ab_188.jpg","76","image-keyboard-response","80","155531","0.0-3.0-1.38","","","Set_2_Only","l","true"
"null","<div style=""font-size:60px;"">+</div>","null","html-keyboard-response","81","156038","0.0-3.0-0.39","","fixation","","",""
"2441","a_b montage/ab_099.jpg","66","image-keyboard-response","82","158482","0.0-3.0-1.39","","","Update","b","true"
"null","<div style=""font-size:60px;"">+</div>","null","html-keyboard-response","83","158991","0.0-3.0-0.40","","fixation","","",""
"3695","a_b montage/ab_127.jpg","82","image-keyboard-response","84","162690","0.0-3.0-1.40","","","Update","b","false"
"null","<div style=""font-size:60px;"">+</div>","null","html-keyboard-response","85","163194","0.0-3.0-0.41","","fixation","","",""
"2629","b_a montage/ba_050.jpg","82","image-keyboard-response","86","165826","0.0-3.0-1.41","","","Repeat","r","true"
"null","<div style=""font-size:60px;"">+</div>","null","html-keyboard-response","87","166336","0.0-3.0-0.42","","fixation","","",""
"2480","a_b montage/ab_142.jpg","66","image-keyboard-response","88","168818","0.0-3.0-1.42","","","Update","b","true"
"null","<div style=""font-size:60px;"">+</div>","null","html-keyboard-response","89","169320","0.0-3.0-0.43","","fixation","","",""
"2815","b_a montage/ba_056.jpg","66","image-keyboard-response","90","172138","0.0-3.0-1.43","","","Repeat","r","false"
"null","<div style=""font-size:60px;"">+</div>","null","html-keyboard-response","91","172648","0.0-3.0-0.44","","fixation","","",""
"1543","a_b montage/ab_150.jpg","66","image-keyboard-response","92","174194","0.0-3.0-1.44","","","Update","b","true"
"null","<div style=""font-size:60px;"">+</div>","null","html-keyboard-response","93","174702","0.0-3.0-0.45","","fixation","","",""
"1905","a_b montage/ab_020.jpg","78","image-keyboard-response","94","176610","0.0-3.0-1.45","","","Set_1_Only","l","false"
"null","<div style=""font-size:60px;"">+</div>","null","html-keyboard-response","95","177133","0.0-3.0-0.46","","fixation","","",""
"2459","a_b montage/ab_139.jpg","82","image-keyboard-response","96","179594","0.0-3.0-1.46","","","Update","b","false"
"null","<div style=""font-size:60px;"">+</div>","null","html-keyboard-response","97","180102","0.0-3.0-0.47","","fixation","","",""
"3834","a_b montage/ab_149.jpg","76","image-keyboard-response","98","183938","0.0-3.0-1.47","","","Update","b","false"
"null","<div style=""font-size:60px;"">+</div>","null","html-keyboard-response","99","184463","0.0-3.0-0.48","","fixation","","",""
"3053","a_b new/ab_003.jpg","76","image-keyboard-response","100","187522","0.0-3.0-1.48","","","Neither","n","false"
"null","<div style=""font-size:60px;"">+</div>","null","html-keyboard-response","101","188039","0.0-3.0-0.49","","fixation","","",""
"2377","a_b montage/ab_098.jpg","66","image-keyboard-response","102","190418","0.0-3.0-1.49","","","Update","b","true"
"null","<div style=""font-size:60px;"">+</div>","null","html-keyboard-response","103","190946","0.0-3.0-0.50","","fixation","","",""
"4070","a_b montage/ab_084.jpg","76","image-keyboard-response","104","195019","0.0-3.0-1.50","","","Repeat","l","true"
"null","<div style=""font-size:60px;"">+</div>","null","html-keyboard-response","105","195525","0.0-3.0-0.51","","fixation","","",""
"2584","a_b montage/ab_177.jpg","78","image-keyboard-response","106","198114","0.0-3.0-1.51","","","Set_2_Only","l","false"
"null","<div style=""font-size:60px;"">+</div>","null","html-keyboard-response","107","198626","0.0-3.0-0.52","","fixation","","",""
"2435","a_b montage/ab_111.jpg","76","image-keyboard-response","108","201066","0.0-3.0-1.52","","","Update","b","false"
"null","<div style=""font-size:60px;"">+</div>","null","html-keyboard-response","109","201587","0.0-3.0-0.53","","fixation","","",""
"2005","a_b montage/ab_090.jpg","76","image-keyboard-response","110","203595","0.0-3.0-1.53","","","Repeat","l","true"
"null","<div style=""font-size:60px;"">+</div>","null","html-keyboard-response","111","204113","0.0-3.0-0.54","","fixation","","",""
"2814","b_a montage/ba_012.jpg","76","image-keyboard-response","112","206940","0.0-3.0-1.54","","","Set_1_Only","r","false"
"null","<div style=""font-size:60px;"">+</div>","null","html-keyboard-response","113","207455","0.0-3.0-0.55","","fixation","","",""
"2423","b_a montage/ba_039.jpg","66","image-keyboard-response","114","209883","0.0-3.0-1.55","","","Repeat","r","false"
"null","<div style=""font-size:60px;"">+</div>","null","html-keyboard-response","115","210396","0.0-3.0-0.56","","fixation","","",""
"2274","a_b montage/ab_125.jpg","66","image-keyboard-response","116","212676","0.0-3.0-1.56","","","Update","b","true"
"null","<div style=""font-size:60px;"">+</div>","null","html-keyboard-response","117","213193","0.0-3.0-0.57","","fixation","","",""
"3452","b_a montage/ba_172.jpg","78","image-keyboard-response","118","216651","0.0-3.0-1.57","","","Set_2_Only","r","false"
"null","<div style=""font-size:60px;"">+</div>","null","html-keyboard-response","119","217163","0.0-3.0-0.58","","fixation","","",""
"2299","b_a montage/ba_046.jpg","66","image-keyboard-response","120","219467","0.0-3.0-1.58","","","Repeat","r","false"
"null","<div style=""font-size:60px;"">+</div>","null","html-keyboard-response","121","219992","0.0-3.0-0.59","","fixation","","",""
"3468","b_a montage/ba_004.jpg","76","image-keyboard-response","122","223467","0.0-3.0-1.59","","","Set_1_Only","r","false"
"null","<div style=""font-size:60px;"">+</div>","null","html-keyboard-response","123","223986","0.0-3.0-0.60","","fixation","","",""
"1579","b_a montage/ba_062.jpg","76","image-keyboard-response","124","225571","0.0-3.0-1.60","","","Repeat","r","false"
"null","<div style=""font-size:60px;"">+</div>","null","html-keyboard-response","125","226087","0.0-3.0-0.61","","fixation","","",""
"3246","b_a montage/ba_166.jpg","76","image-keyboard-response","126","229339","0.0-3.0-1.61","","","Set_2_Only","r","false"
"null","<div style=""font-size:60px;"">+</div>","null","html-keyboard-response","127","229869","0.0-3.0-0.62","","fixation","","",""
"2200","a_b montage/ab_148.jpg","66","image-keyboard-response","128","232075","0.0-3.0-1.62","","","Update","b","true"
"null","<div style=""font-size:60px;"">+</div>","null","html-keyboard-response","129","232588","0.0-3.0-0.63","","fixation","","",""
"3449","a_b montage/ab_108.jpg","66","image-keyboard-response","130","236043","0.0-3.0-1.63","","","Update","b","true"
"null","<div style=""font-size:60px;"">+</div>","null","html-keyboard-response","131","236572","0.0-3.0-0.64","","fixation","","",""
"2193","a_b new/ab_010.jpg","78","image-keyboard-response","132","238771","0.0-3.0-1.64","","","Neither","n","true"
"null","<div style=""font-size:60px;"">+</div>","null","html-keyboard-response","133","239292","0.0-3.0-0.65","","fixation","","",""
"3169","b_a montage/ba_011.jpg","82","image-keyboard-response","134","242467","0.0-3.0-1.65","","","Set_1_Only","r","true"
"null","<div style=""font-size:60px;"">+</div>","null","html-keyboard-response","135","242980","0.0-3.0-0.66","","fixation","","",""
"6312","a_b montage/ab_180.jpg","78","image-keyboard-response","136","249298","0.0-3.0-1.66","","","Set_2_Only","l","false"
"null","<div style=""font-size:60px;"">+</div>","null","html-keyboard-response","137","249809","0.0-3.0-0.67","","fixation","","",""
"3940","b_a montage/ba_015.jpg","76","image-keyboard-response","138","253755","0.0-3.0-1.67","","","Set_1_Only","r","false"
"null","<div style=""font-size:60px;"">+</div>","null","html-keyboard-response","139","254262","0.0-3.0-0.68","","fixation","","",""
"2541","b_a montage/ba_058.jpg","82","image-keyboard-response","140","256810","0.0-3.0-1.68","","","Repeat","r","true"
"null","<div style=""font-size:60px;"">+</div>","null","html-keyboard-response","141","257326","0.0-3.0-0.69","","fixation","","",""
"2163","a_b montage/ab_154.jpg","82","image-keyboard-response","142","259491","0.0-3.0-1.69","","","Update","b","false"
"null","<div style=""font-size:60px;"">+</div>","null","html-keyboard-response","143","260002","0.0-3.0-0.70","","fixation","","",""
"4113","a_b montage/ab_112.jpg","82","image-keyboard-response","144","264121","0.0-3.0-1.70","","","Update","b","false"
"null","<div style=""font-size:60px;"">+</div>","null","html-keyboard-response","145","264639","0.0-3.0-0.71","","fixation","","",""
"3494","a_b montage/ab_183.jpg","76","image-keyboard-response","146","268139","0.0-3.0-1.71","","","Set_2_Only","l","true"
"null","<div style=""font-size:60px;"">+</div>","null","html-keyboard-response","147","268655","0.0-3.0-0.72","","fixation","","",""
"2220","a_b montage/ab_192.jpg","78","image-keyboard-response","148","270881","0.0-3.0-1.72","","","Set_2_Only","l","false"
"null","<div style=""font-size:60px;"">+</div>","null","html-keyboard-response","149","271406","0.0-3.0-0.73","","fixation","","",""
"2079","a_b montage/ab_113.jpg","66","image-keyboard-response","150","273490","0.0-3.0-1.73","","","Update","b","true"
"null","<div style=""font-size:60px;"">+</div>","null","html-keyboard-response","151","274016","0.0-3.0-0.74","","fixation","","",""
"2557","b_a montage/ba_037.jpg","76","image-keyboard-response","152","276579","0.0-3.0-1.74","","","Repeat","r","false"
"null","<div style=""font-size:60px;"">+</div>","null","html-keyboard-response","153","277095","0.0-3.0-0.75","","fixation","","",""
"3462","a_b montage/ab_019.jpg","78","image-keyboard-response","154","280562","0.0-3.0-1.75","","","Set_1_Only","l","false"
"null","<div style=""font-size:60px;"">+</div>","null","html-keyboard-response","155","281080","0.0-3.0-0.76","","fixation","","",""
"2909","a_b montage/ab_018.jpg","76","image-keyboard-response","156","283995","0.0-3.0-1.76","","","Set_1_Only","l","true"
"null","<div style=""font-size:60px;"">+</div>","null","html-keyboard-response","157","284518","0.0-3.0-0.77","","fixation","","",""
"2807","a_b montage/ab_085.jpg","66","image-keyboard-response","158","287330","0.0-3.0-1.77","","","Repeat","l","false"
"null","<div style=""font-size:60px;"">+</div>","null","html-keyboard-response","159","287847","0.0-3.0-0.78","","fixation","","",""
"3597","b_a montage/ba_034.jpg","82","image-keyboard-response","160","291451","0.0-3.0-1.78","","","Repeat","r","true"
"null","<div style=""font-size:60px;"">+</div>","null","html-keyboard-response","161","291957","0.0-3.0-0.79","","fixation","","",""
"2832","a_b montage/ab_117.jpg","76","image-keyboard-response","162","294795","0.0-3.0-1.79","","","Update","b","false"
"null","<div style=""font-size:60px;"">+</div>","null","html-keyboard-response","163","295301","0.0-3.0-0.80","","fixation","","",""
"2791","a_b montage/ab_082.jpg","66","image-keyboard-response","164","298099","0.0-3.0-1.80","","","Repeat","l","false"
"null","<div style=""font-size:60px;"">+</div>","null","html-keyboard-response","165","298613","0.0-3.0-0.81","","fixation","","",""
"2786","a_b montage/ab_092.jpg","76","image-keyboard-response","166","301403","0.0-3.0-1.81","","","Repeat","l","true"
"null","<div style=""font-size:60px;"">+</div>","null","html-keyboard-response","167","301918","0.0-3.0-0.82","","fixation","","",""
"5625","b_a montage/ba_060.jpg","82","image-keyboard-response","168","307546","0.0-3.0-1.82","","","Repeat","r","true"
"null","<div style=""font-size:60px;"">+</div>","null","html-keyboard-response","169","308071","0.0-3.0-0.83","","fixation","","",""
"3221","b_a montage/ba_061.jpg","82","image-keyboard-response","170","311299","0.0-3.0-1.83","","","Repeat","r","true"
"null","<div style=""font-size:60px;"">+</div>","null","html-keyboard-response","171","311823","0.0-3.0-0.84","","fixation","","",""
"2494","a_b montage/ab_158.jpg","66","image-keyboard-response","172","314323","0.0-3.0-1.84","","","Update","b","true"
"null","<div style=""font-size:60px;"">+</div>","null","html-keyboard-response","173","314839","0.0-3.0-0.85","","fixation","","",""
"2887","a_b montage/ab_075.jpg","76","image-keyboard-response","174","317731","0.0-3.0-1.85","","","Repeat","l","true"
"null","<div style=""font-size:60px;"">+</div>","null","html-keyboard-response","175","318245","0.0-3.0-0.86","","fixation","","",""
"2080","a_b montage/ab_086.jpg","76","image-keyboard-response","176","320331","0.0-3.0-1.86","","","Repeat","l","true"
"null","<div style=""font-size:60px;"">+</div>","null","html-keyboard-response","177","320839","0.0-3.0-0.87","","fixation","","",""
"1661","a_b montage/ab_190.jpg","76","image-keyboard-response","178","322506","0.0-3.0-1.87","","","Set_2_Only","l","true"
"null","<div style=""font-size:60px;"">+</div>","null","html-keyboard-response","179","323027","0.0-3.0-0.88","","fixation","","",""
"3170","b_a montage/ba_055.jpg","82","image-keyboard-response","180","326202","0.0-3.0-1.88","","","Repeat","r","true"
"null","<div style=""font-size:60px;"">+</div>","null","html-keyboard-response","181","326731","0.0-3.0-0.89","","fixation","","",""
"1882","a_b montage/ab_135.jpg","66","image-keyboard-response","182","328618","0.0-3.0-1.89","","","Update","b","true"
"null","<div style=""font-size:60px;"">+</div>","null","html-keyboard-response","183","329138","0.0-3.0-0.90","","fixation","","",""
"3540","a_b montage/ab_137.jpg","66","image-keyboard-response","184","332682","0.0-3.0-1.90","","","Update","b","true"
"null","<div style=""font-size:60px;"">+</div>","null","html-keyboard-response","185","333185","0.0-3.0-0.91","","fixation","","",""
"1851","b_a montage/ba_006.jpg","78","image-keyboard-response","186","335042","0.0-3.0-1.91","","","Set_1_Only","r","false"
"null","<div style=""font-size:60px;"">+</div>","null","html-keyboard-response","187","335560","0.0-3.0-0.92","","fixation","","",""
"3764","b_a montage/ba_170.jpg","82","image-keyboard-response","188","339330","0.0-3.0-1.92","","","Set_2_Only","r","true"
"null","<div style=""font-size:60px;"">+</div>","null","html-keyboard-response","189","339842","0.0-3.0-0.93","","fixation","","",""
"2809","b_a montage/ba_051.jpg","82","image-keyboard-response","190","342657","0.0-3.0-1.93","","","Repeat","r","true"
"null","<div style=""font-size:60px;"">+</div>","null","html-keyboard-response","191","343171","0.0-3.0-0.94","","fixation","","",""
"2497","a_b montage/ab_128.jpg","82","image-keyboard-response","192","345674","0.0-3.0-1.94","","","Update","b","false"
"null","<div style=""font-size:60px;"">+</div>","null","html-keyboard-response","193","346187","0.0-3.0-0.95","","fixation","","",""
"2521","a_b montage/ab_145.jpg","66","image-keyboard-response","194","348715","0.0-3.0-1.95","","","Update","b","true"
"null","<div style=""font-size:60px;"">+</div>","null","html-keyboard-response","195","349234","0.0-3.0-0.96","","fixation","","",""
"2390","a_b montage/ab_031.jpg","78","image-keyboard-response","196","351626","0.0-3.0-1.96","","","Set_1_Only","l","false"
"null","<div style=""font-size:60px;"">+</div>","null","html-keyboard-response","197","352141","0.0-3.0-0.97","","fixation","","",""
"2582","a_b montage/ab_071.jpg","76","image-keyboard-response","198","354730","0.0-3.0-1.97","","","Repeat","l","true"
"null","<div style=""font-size:60px;"">+</div>","null","html-keyboard-response","199","355250","0.0-3.0-0.98","","fixation","","",""
"2461","b_a montage/ba_120.jpg","66","image-keyboard-response","200","357715","0.0-3.0-1.98","","","Update","b","true"
"null","<div style=""font-size:60px;"">+</div>","null","html-keyboard-response","201","358220","0.0-3.0-0.99","","fixation","","",""
"1937","b_a montage/ba_143.jpg","66","image-keyboard-response","202","360162","0.0-3.0-1.99","","","Update","b","true"
"null","<div style=""font-size:60px;"">+</div>","null","html-keyboard-response","203","360674","0.0-3.0-0.100","","fixation","","",""
"1466","b_a montage/ba_146.jpg","66","image-keyboard-response","204","362146","0.0-3.0-1.100","","","Update","b","true"
"null","<div style=""font-size:60px;"">+</div>","null","html-keyboard-response","205","362674","0.0-3.0-0.101","","fixation","","",""
"2210","a_b new/ab_015.jpg","78","image-keyboard-response","206","364890","0.0-3.0-1.101","","","Neither","n","true"
"null","<div style=""font-size:60px;"">+</div>","null","html-keyboard-response","207","365409","0.0-3.0-0.102","","fixation","","",""
"2603","b_a montage/ba_097.jpg","82","image-keyboard-response","208","368019","0.0-3.0-1.102","","","Update","b","false"
"null","<div style=""font-size:60px;"">+</div>","null","html-keyboard-response","209","368534","0.0-3.0-0.103","","fixation","","",""
"3880","b_a montage/ba_036.jpg","76","image-keyboard-response","210","372417","0.0-3.0-1.103","","","Repeat","r","false"
"null","<div style=""font-size:60px;"">+</div>","null","html-keyboard-response","211","372935","0.0-3.0-0.104","","fixation","","",""
"3110","b_a montage/ba_136.jpg","82","image-keyboard-response","212","376051","0.0-3.0-1.104","","","Update","b","false"
"null","<div style=""font-size:60px;"">+</div>","null","html-keyboard-response","213","376567","0.0-3.0-0.105","","fixation","","",""
"4223","a_b montage/ab_073.jpg","66","image-keyboard-response","214","380793","0.0-3.0-1.105","","","Repeat","l","false"
"null","<div style=""font-size:60px;"">+</div>","null","html-keyboard-response","215","381317","0.0-3.0-0.106","","fixation","","",""
"4279","b_a montage/ba_133.jpg","76","image-keyboard-response","216","385602","0.0-3.0-1.106","","","Update","b","false"
"null","<div style=""font-size:60px;"">+</div>","null","html-keyboard-response","217","386130","0.0-3.0-0.107","","fixation","","",""
"2464","b_a montage/ba_045.jpg","66","image-keyboard-response","218","388602","0.0-3.0-1.107","","","Repeat","r","false"
"null","<div style=""font-size:60px;"">+</div>","null","html-keyboard-response","219","389131","0.0-3.0-0.108","","fixation","","",""
"5111","a_b montage/ab_081.jpg","76","image-keyboard-response","220","394249","0.0-3.0-1.108","","","Repeat","l","true"
"null","<div style=""font-size:60px;"">+</div>","null","html-keyboard-response","221","394758","0.0-3.0-0.109","","fixation","","",""
"2574","a_b montage/ab_089.jpg","66","image-keyboard-response","222","397338","0.0-3.0-1.109","","","Repeat","l","false"
"null","<div style=""font-size:60px;"">+</div>","null","html-keyboard-response","223","397868","0.0-3.0-0.110","","fixation","","",""
"1820","a_b new/ab_005.jpg","78","image-keyboard-response","224","399689","0.0-3.0-1.110","","","Neither","n","true"
"null","<div style=""font-size:60px;"">+</div>","null","html-keyboard-response","225","400204","0.0-3.0-0.111","","fixation","","",""
"2987","b_a montage/ba_053.jpg","82","image-keyboard-response","226","403193","0.0-3.0-1.111","","","Repeat","r","true"
"null","<div style=""font-size:60px;"">+</div>","null","html-keyboard-response","227","403716","0.0-3.0-0.112","","fixation","","",""
"2673","b_a montage/ba_119.jpg","76","image-keyboard-response","228","406394","0.0-3.0-1.112","","","Update","b","false"
"null","<div style=""font-size:60px;"">+</div>","null","html-keyboard-response","229","406910","0.0-3.0-0.113","","fixation","","",""
"2662","b_a montage/ba_171.jpg","78","image-keyboard-response","230","409577","0.0-3.0-1.113","","","Set_2_Only","r","false"
"null","<div style=""font-size:60px;"">+</div>","null","html-keyboard-response","231","410086","0.0-3.0-0.114","","fixation","","",""
"4678","b_a montage/ba_110.jpg","82","image-keyboard-response","232","414770","0.0-3.0-1.114","","","Update","b","false"
"null","<div style=""font-size:60px;"">+</div>","null","html-keyboard-response","233","415274","0.0-3.0-0.115","","fixation","","",""
"3402","b_a montage/ba_116.jpg","76","image-keyboard-response","234","418682","0.0-3.0-1.115","","","Update","b","false"
"null","<div style=""font-size:60px;"">+</div>","null","html-keyboard-response","235","419212","0.0-3.0-0.116","","fixation","","",""
"3044","a_b montage/ab_024.jpg","78","image-keyboard-response","236","422258","0.0-3.0-1.116","","","Set_1_Only","l","false"
"null","<div style=""font-size:60px;"">+</div>","null","html-keyboard-response","237","422768","0.0-3.0-0.117","","fixation","","",""
"2340","a_b montage/ab_026.jpg","66","image-keyboard-response","238","425113","0.0-3.0-1.117","","","Set_1_Only","l","false"
"null","<div style=""font-size:60px;"">+</div>","null","html-keyboard-response","239","425619","0.0-3.0-0.118","","fixation","","",""
"2704","b_a montage/ba_052.jpg","82","image-keyboard-response","240","428329","0.0-3.0-1.118","","","Repeat","r","true"
"null","<div style=""font-size:60px;"">+</div>","null","html-keyboard-response","241","428838","0.0-3.0-0.119","","fixation","","",""
"1529","a_b montage/ab_094.jpg","82","image-keyboard-response","242","430370","0.0-3.0-1.119","","","Repeat","l","false"
"null","<div style=""font-size:60px;"">+</div>","null","html-keyboard-response","243","430901","0.0-3.0-0.120","","fixation","","",""
"4068","b_a montage/ba_101.jpg","66","image-keyboard-response","244","434970","0.0-3.0-1.120","","","Update","b","true"
"null","<div style=""font-size:60px;"">+</div>","null","html-keyboard-response","245","435485","0.0-3.0-0.121","","fixation","","",""
"3430","b_a montage/ba_152.jpg","76","image-keyboard-response","246","438922","0.0-3.0-1.121","","","Update","b","false"
"null","<div style=""font-size:60px;"">+</div>","null","html-keyboard-response","247","439435","0.0-3.0-0.122","","fixation","","",""
"4066","a_b montage/ab_093.jpg","76","image-keyboard-response","248","443506","0.0-3.0-1.122","","","Repeat","l","true"
"null","<div style=""font-size:60px;"">+</div>","null","html-keyboard-response","249","444013","0.0-3.0-0.123","","fixation","","",""
"1960","a_b new/ab_007.jpg","78","image-keyboard-response","250","445978","0.0-3.0-1.123","","","Neither","n","true"
"null","<div style=""font-size:60px;"">+</div>","null","html-keyboard-response","251","446497","0.0-3.0-0.124","","fixation","","",""
"2782","b_a montage/ba_102.jpg","76","image-keyboard-response","252","449282","0.0-3.0-1.124","","","Update","b","false"
"null","<div style=""font-size:60px;"">+</div>","null","html-keyboard-response","253","449801","0.0-3.0-0.125","","fixation","","",""
"2001","a_b montage/ab_021.jpg","76","image-keyboard-response","254","451808","0.0-3.0-1.125","","","Set_1_Only","l","true"
"null","<div style=""font-size:60px;"">+</div>","null","html-keyboard-response","255","452327","0.0-3.0-0.126","","fixation","","",""
"4045","a_b montage/ab_065.jpg","82","image-keyboard-response","256","456377","0.0-3.0-1.126","","","Repeat","l","false"
"null","<div style=""font-size:60px;"">+</div>","null","html-keyboard-response","257","456890","0.0-3.0-0.127","","fixation","","",""
"2097","a_b new/ab_002.jpg","78","image-keyboard-response","258","458993","0.0-3.0-1.127","","","Neither","n","true"
"null","<div style=""font-size:60px;"">+</div>","null","html-keyboard-response","259","459500","0.0-3.0-0.128","","fixation","","",""
"3303","b_a montage/ba_057.jpg","82","image-keyboard-response","260","462809","0.0-3.0-1.128","","","Repeat","r","true"
"null","<div style=""font-size:60px;"">+</div>","null","html-keyboard-response","261","463312","0.0-3.0-0.129","","fixation","","",""
"1987","b_a montage/ba_167.jpg","82","image-keyboard-response","262","465306","0.0-3.0-1.129","","","Set_2_Only","r","true"
"null","<div style=""font-size:60px;"">+</div>","null","html-keyboard-response","263","465829","0.0-3.0-0.130","","fixation","","",""
"2854","b_a montage/ba_160.jpg","82","image-keyboard-response","264","468690","0.0-3.0-1.130","","","Update","b","false"
"null","<div style=""font-size:60px;"">+</div>","null","html-keyboard-response","265","469219","0.0-3.0-0.131","","fixation","","",""
"2240","b_a montage/ba_005.jpg","78","image-keyboard-response","266","471466","0.0-3.0-1.131","","","Set_1_Only","r","false"
"null","<div style=""font-size:60px;"">+</div>","null","html-keyboard-response","267","471969","0.0-3.0-0.132","","fixation","","",""
"3557","b_a montage/ba_140.jpg","82","image-keyboard-response","268","475530","0.0-3.0-1.132","","","Update","b","false"
"null","<div style=""font-size:60px;"">+</div>","null","html-keyboard-response","269","476049","0.0-3.0-0.133","","fixation","","",""
"2051","b_a new/ba_006.jpg","78","image-keyboard-response","270","478106","0.0-3.0-1.133","","","Neither","n","true"
"null","<div style=""font-size:60px;"">+</div>","null","html-keyboard-response","271","478611","0.0-3.0-0.134","","fixation","","",""
"2844","b_a montage/ba_123.jpg","76","image-keyboard-response","272","481458","0.0-3.0-1.134","","","Update","b","false"
"null","<div style=""font-size:60px;"">+</div>","null","html-keyboard-response","273","481987","0.0-3.0-0.135","","fixation","","",""
"2871","b_a montage/ba_033.jpg","82","image-keyboard-response","274","484864","0.0-3.0-1.135","","","Repeat","r","true"
"null","<div style=""font-size:60px;"">+</div>","null","html-keyboard-response","275","485379","0.0-3.0-0.136","","fixation","","",""
"1943","a_b montage/ab_077.jpg","82","image-keyboard-response","276","487329","0.0-3.0-1.136","","","Repeat","l","false"
"null","<div style=""font-size:60px;"">+</div>","null","html-keyboard-response","277","487848","0.0-3.0-0.137","","fixation","","",""
"3918","a_b montage/ab_032.jpg","66","image-keyboard-response","278","491768","0.0-3.0-1.137","","","Set_1_Only","l","false"
"null","<div style=""font-size:60px;"">+</div>","null","html-keyboard-response","279","492271","0.0-3.0-0.138","","fixation","","",""
"1715","b_a montage/ba_156.jpg","66","image-keyboard-response","280","493994","0.0-3.0-1.138","","","Update","b","true"
"null","<div style=""font-size:60px;"">+</div>","null","html-keyboard-response","281","494506","0.0-3.0-0.139","","fixation","","",""
"1529","a_b montage/ab_022.jpg","78","image-keyboard-response","282","496041","0.0-3.0-1.139","","","Set_1_Only","l","false"
"null","<div style=""font-size:60px;"">+</div>","null","html-keyboard-response","283","496553","0.0-3.0-0.140","","fixation","","",""
"4926","b_a montage/ba_114.jpg","76","image-keyboard-response","284","501481","0.0-3.0-1.140","","","Update","b","false"
"null","<div style=""font-size:60px;"">+</div>","null","html-keyboard-response","285","502010","0.0-3.0-0.141","","fixation","","",""
"1865","b_a new/ba_013.jpg","76","image-keyboard-response","286","503881","0.0-3.0-1.141","","","Neither","n","false"
"null","<div style=""font-size:60px;"">+</div>","null","html-keyboard-response","287","504384","0.0-3.0-0.142","","fixation","","",""
"3799","a_b montage/ab_023.jpg","82","image-keyboard-response","288","508186","0.0-3.0-1.142","","","Set_1_Only","l","false"
"null","<div style=""font-size:60px;"">+</div>","null","html-keyboard-response","289","508695","0.0-3.0-0.143","","fixation","","",""
"4752","a_b montage/ab_087.jpg","76","image-keyboard-response","290","513449","0.0-3.0-1.143","","","Repeat","l","true"
"null","<div style=""font-size:60px;"">+</div>","null","html-keyboard-response","291","513980","0.0-3.0-0.144","","fixation","","",""
"4546","b_a montage/ba_155.jpg","76","image-keyboard-response","292","518530","0.0-3.0-1.144","","","Update","b","false"
"null","<div style=""font-size:60px;"">+</div>","null","html-keyboard-response","293","519041","0.0-3.0-0.145","","fixation","","",""
"4086","b_a montage/ba_002.jpg","78","image-keyboard-response","294","523129","0.0-3.0-1.145","","","Set_1_Only","r","false"
"null","<div style=""font-size:60px;"">+</div>","null","html-keyboard-response","295","523651","0.0-3.0-0.146","","fixation","","",""
"1751","b_a montage/ba_161.jpg","78","image-keyboard-response","296","525410","0.0-3.0-1.146","","","Set_2_Only","r","false"
"null","<div style=""font-size:60px;"">+</div>","null","html-keyboard-response","297","525932","0.0-3.0-0.147","","fixation","","",""
"4641","a_b montage/ab_029.jpg","82","image-keyboard-response","298","530577","0.0-3.0-1.147","","","Set_1_Only","l","false"
"null","<div style=""font-size:60px;"">+</div>","null","html-keyboard-response","299","531089","0.0-3.0-0.148","","fixation","","",""
"1890","a_b montage/ab_030.jpg","78","image-keyboard-response","300","532986","0.0-3.0-1.148","","","Set_1_Only","l","false"
"null","<div style=""font-size:60px;"">+</div>","null","html-keyboard-response","301","533500","0.0-3.0-0.149","","fixation","","",""
"1130","b_a new/ba_004.jpg","78","image-keyboard-response","302","534633","0.0-3.0-1.149","","","Neither","n","true"
"null","<div style=""font-size:60px;"">+</div>","null","html-keyboard-response","303","535139","0.0-3.0-0.150","","fixation","","",""
"2586","b_a montage/ba_049.jpg","66","image-keyboard-response","304","537729","0.0-3.0-1.150","","","Repeat","r","false"
"null","<div style=""font-size:60px;"">+</div>","null","html-keyboard-response","305","538247","0.0-3.0-0.151","","fixation","","",""
"4879","a_b montage/ab_027.jpg","76","image-keyboard-response","306","543130","0.0-3.0-1.151","","","Set_1_Only","l","true"
"null","<div style=""font-size:60px;"">+</div>","null","html-keyboard-response","307","543638","0.0-3.0-0.152","","fixation","","",""
"2952","b_a montage/ba_008.jpg","82","image-keyboard-response","308","546594","0.0-3.0-1.152","","","Set_1_Only","r","true"
"null","<div style=""font-size:60px;"">+</div>","null","html-keyboard-response","309","547108","0.0-3.0-0.153","","fixation","","",""
"2695","b_a montage/ba_048.jpg","66","image-keyboard-response","310","549809","0.0-3.0-1.153","","","Repeat","r","false"
"null","<div style=""font-size:60px;"">+</div>","null","html-keyboard-response","311","550327","0.0-3.0-0.154","","fixation","","",""
"2395","a_b montage/ab_191.jpg","78","image-keyboard-response","312","552730","0.0-3.0-1.154","","","Set_2_Only","l","false"
"null","<div style=""font-size:60px;"">+</div>","null","html-keyboard-response","313","553233","0.0-3.0-0.155","","fixation","","",""
"2125","a_b montage/ab_186.jpg","76","image-keyboard-response","314","555360","0.0-3.0-1.155","","","Set_2_Only","l","true"
"null","<div style=""font-size:60px;"">+</div>","null","html-keyboard-response","315","555874","0.0-3.0-0.156","","fixation","","",""
"3323","b_a montage/ba_157.jpg","66","image-keyboard-response","316","559201","0.0-3.0-1.156","","","Update","b","true"
"null","<div style=""font-size:60px;"">+</div>","null","html-keyboard-response","317","559719","0.0-3.0-0.157","","fixation","","",""
"3187","a_b montage/ab_072.jpg","76","image-keyboard-response","318","562913","0.0-3.0-1.157","","","Repeat","l","true"
"null","<div style=""font-size:60px;"">+</div>","null","html-keyboard-response","319","563422","0.0-3.0-0.158","","fixation","","",""
"2084","b_a montage/ba_173.jpg","78","image-keyboard-response","320","565513","0.0-3.0-1.158","","","Set_2_Only","r","false"
"null","<div style=""font-size:60px;"">+</div>","null","html-keyboard-response","321","566033","0.0-3.0-0.159","","fixation","","",""
"2050","a_b montage/ab_187.jpg","78","image-keyboard-response","322","568089","0.0-3.0-1.159","","","Set_2_Only","l","false"
"null","<div style=""font-size:60px;"">+</div>","null","html-keyboard-response","323","568594","0.0-3.0-0.160","","fixation","","",""
"3076","b_a montage/ba_016.jpg","82","image-keyboard-response","324","571673","0.0-3.0-1.160","","","Set_1_Only","r","true"
"null","<div style=""font-size:60px;"">+</div>","null","html-keyboard-response","325","572200","0.0-3.0-0.161","","fixation","","",""
"3277","a_b montage/ab_095.jpg","76","image-keyboard-response","326","575481","0.0-3.0-1.161","","","Repeat","l","true"
"null","<div style=""font-size:60px;"">+</div>","null","html-keyboard-response","327","576003","0.0-3.0-0.162","","fixation","","",""
"2615","a_b montage/ab_178.jpg","76","image-keyboard-response","328","578625","0.0-3.0-1.162","","","Set_2_Only","l","true"
"null","<div style=""font-size:60px;"">+</div>","null","html-keyboard-response","329","579127","0.0-3.0-0.163","","fixation","","",""
"1764","b_a new/ba_014.jpg","78","image-keyboard-response","330","580897","0.0-3.0-1.163","","","Neither","n","true"
"null","<div style=""font-size:60px;"">+</div>","null","html-keyboard-response","331","581413","0.0-3.0-0.164","","fixation","","",""
"2598","b_a montage/ba_126.jpg","66","image-keyboard-response","332","584017","0.0-3.0-1.164","","","Update","b","true"
"null","<div style=""font-size:60px;"">+</div>","null","html-keyboard-response","333","584535","0.0-3.0-0.165","","fixation","","",""
"4988","b_a montage/ba_134.jpg","76","image-keyboard-response","334","589528","0.0-3.0-1.165","","","Update","b","false"
"null","<div style=""font-size:60px;"">+</div>","null","html-keyboard-response","335","590036","0.0-3.0-0.166","","fixation","","",""
"2895","b_a montage/ba_162.jpg","76","image-keyboard-response","336","592937","0.0-3.0-1.166","","","Set_2_Only","r","false"
"null","<div style=""font-size:60px;"">+</div>","null","html-keyboard-response","337","593443","0.0-3.0-0.167","","fixation","","",""
"2496","b_a montage/ba_003.jpg","82","image-keyboard-response","338","595945","0.0-3.0-1.167","","","Set_1_Only","r","true"
"null","<div style=""font-size:60px;"">+</div>","null","html-keyboard-response","339","596458","0.0-3.0-0.168","","fixation","","",""
"1725","b_a montage/ba_007.jpg","78","image-keyboard-response","340","598185","0.0-3.0-1.168","","","Set_1_Only","r","false"
"null","<div style=""font-size:60px;"">+</div>","null","html-keyboard-response","341","598701","0.0-3.0-0.169","","fixation","","",""
"2655","b_a montage/ba_063.jpg","82","image-keyboard-response","342","601361","0.0-3.0-1.169","","","Repeat","r","true"
"null","<div style=""font-size:60px;"">+</div>","null","html-keyboard-response","343","601884","0.0-3.0-0.170","","fixation","","",""
"2920","b_a montage/ba_132.jpg","66","image-keyboard-response","344","604808","0.0-3.0-1.170","","","Update","b","true"
"null","<div style=""font-size:60px;"">+</div>","null","html-keyboard-response","345","605321","0.0-3.0-0.171","","fixation","","",""
"3282","a_b montage/ab_096.jpg","76","image-keyboard-response","346","608609","0.0-3.0-1.171","","","Repeat","l","true"
"null","<div style=""font-size:60px;"">+</div>","null","html-keyboard-response","347","609116","0.0-3.0-0.172","","fixation","","",""
"3026","b_a montage/ba_014.jpg","78","image-keyboard-response","348","612145","0.0-3.0-1.172","","","Set_1_Only","r","false"
"null","<div style=""font-size:60px;"">+</div>","null","html-keyboard-response","349","612663","0.0-3.0-0.173","","fixation","","",""
"2150","b_a montage/ba_105.jpg","66","image-keyboard-response","350","614817","0.0-3.0-1.173","","","Update","b","true"
"null","<div style=""font-size:60px;"">+</div>","null","html-keyboard-response","351","615320","0.0-3.0-0.174","","fixation","","",""
"1594","b_a montage/ba_054.jpg","66","image-keyboard-response","352","616920","0.0-3.0-1.174","","","Repeat","r","false"
"null","<div style=""font-size:60px;"">+</div>","null","html-keyboard-response","353","617429","0.0-3.0-0.175","","fixation","","",""
"3415","b_a montage/ba_042.jpg","76","image-keyboard-response","354","620847","0.0-3.0-1.175","","","Repeat","r","false"
"null","<div style=""font-size:60px;"">+</div>","null","html-keyboard-response","355","621368","0.0-3.0-0.176","","fixation","","",""
"2351","a_b montage/ab_074.jpg","66","image-keyboard-response","356","623721","0.0-3.0-1.176","","","Repeat","l","false"
"null","<div style=""font-size:60px;"">+</div>","null","html-keyboard-response","357","624228","0.0-3.0-0.177","","fixation","","",""
"3116","a_b montage/ab_083.jpg","76","image-keyboard-response","358","627351","0.0-3.0-1.177","","","Repeat","l","true"
"null","<div style=""font-size:60px;"">+</div>","null","html-keyboard-response","359","627866","0.0-3.0-0.178","","fixation","","",""
"2693","b_a montage/ba_144.jpg","82","image-keyboard-response","360","630561","0.0-3.0-1.178","","","Update","b","false"
"null","<div style=""font-size:60px;"">+</div>","null","html-keyboard-response","361","631072","0.0-3.0-0.179","","fixation","","",""
"2386","a_b montage/ab_078.jpg","76","image-keyboard-response","362","633464","0.0-3.0-1.179","","","Repeat","l","true"
"null","<div style=""font-size:60px;"">+</div>","null","html-keyboard-response","363","633980","0.0-3.0-0.180","","fixation","","",""
"3135","a_b montage/ab_184.jpg","76","image-keyboard-response","364","637120","0.0-3.0-1.180","","","Set_2_Only","l","true"
"null","<div style=""font-size:60px;"">+</div>","null","html-keyboard-response","365","637636","0.0-3.0-0.181","","fixation","","",""
"3334","b_a montage/ba_121.jpg","66","image-keyboard-response","366","640977","0.0-3.0-1.181","","","Update","b","true"
"null","<div style=""font-size:60px;"">+</div>","null","html-keyboard-response","367","641496","0.0-3.0-0.182","","fixation","","",""
"2906","b_a montage/ba_001.jpg","76","image-keyboard-response","368","644408","0.0-3.0-1.182","","","Set_1_Only","r","false"
"null","<div style=""font-size:60px;"">+</div>","null","html-keyboard-response","369","644920","0.0-3.0-0.183","","fixation","","",""
"1235","b_a montage/ba_106.jpg","76","image-keyboard-response","370","646161","0.0-3.0-1.183","","","Update","b","false"
"null","<div style=""font-size:60px;"">+</div>","null","html-keyboard-response","371","646684","0.0-3.0-0.184","","fixation","","",""
"3664","b_a montage/ba_122.jpg","66","image-keyboard-response","372","650352","0.0-3.0-1.184","","","Update","b","true"
"null","<div style=""font-size:60px;"">+</div>","null","html-keyboard-response","373","650858","0.0-3.0-0.185","","fixation","","",""
"3193","b_a montage/ba_064.jpg","76","image-keyboard-response","374","654057","0.0-3.0-1.185","","","Repeat","r","false"
"null","<div style=""font-size:60px;"">+</div>","null","html-keyboard-response","375","654577","0.0-3.0-0.186","","fixation","","",""
"3305","b_a montage/ba_059.jpg","76","image-keyboard-response","376","657889","0.0-3.0-1.186","","","Repeat","r","false"
"null","<div style=""font-size:60px;"">+</div>","null","html-keyboard-response","377","658406","0.0-3.0-0.187","","fixation","","",""
"3948","b_a montage/ba_175.jpg","82","image-keyboard-response","378","662361","0.0-3.0-1.187","","","Set_2_Only","r","true"
"null","<div style=""font-size:60px;"">+</div>","null","html-keyboard-response","379","662875","0.0-3.0-0.188","","fixation","","",""
"1919","b_a montage/ba_169.jpg","78","image-keyboard-response","380","664801","0.0-3.0-1.188","","","Set_2_Only","r","false"
"null","<div style=""font-size:60px;"">+</div>","null","html-keyboard-response","381","665313","0.0-3.0-0.189","","fixation","","",""
"2816","b_a montage/ba_151.jpg","76","image-keyboard-response","382","668136","0.0-3.0-1.189","","","Update","b","false"
"null","<div style=""font-size:60px;"">+</div>","null","html-keyboard-response","383","668650","0.0-3.0-0.190","","fixation","","",""
"3137","b_a montage/ba_010.jpg","82","image-keyboard-response","384","671790","0.0-3.0-1.190","","","Set_1_Only","r","true"
"null","<div style=""font-size:60px;"">+</div>","null","html-keyboard-response","385","672315","0.0-3.0-0.191","","fixation","","",""
"4936","b_a montage/ba_164.jpg","76","image-keyboard-response","386","677256","0.0-3.0-1.191","","","Set_2_Only","r","false"
"null","<div style=""font-size:60px;"">+</div>","null","html-keyboard-response","387","677784","0.0-3.0-0.192","","fixation","","",""
"1870","a_b montage/ab_070.jpg","66","image-keyboard-response","388","679656","0.0-3.0-1.192","","","Repeat","l","false"
"null","<div style=""font-size:60px;"">+</div>","null","html-keyboard-response","389","680175","0.0-3.0-0.193","","fixation","","",""
"4888","b_a montage/ba_044.jpg","76","image-keyboard-response","390","685065","0.0-3.0-1.193","","","Repeat","r","false"
"null","<div style=""font-size:60px;"">+</div>","null","html-keyboard-response","391","685582","0.0-3.0-0.194","","fixation","","",""
"3167","b_a montage/ba_035.jpg","82","image-keyboard-response","392","688752","0.0-3.0-1.194","","","Repeat","r","true"
"null","<div style=""font-size:60px;"">+</div>","null","html-keyboard-response","393","689270","0.0-3.0-0.195","","fixation","","",""
"2594","b_a montage/ba_040.jpg","82","image-keyboard-response","394","691871","0.0-3.0-1.195","","","Repeat","r","true"
"null","<div style=""font-size:60px;"">+</div>","null","html-keyboard-response","395","692396","0.0-3.0-0.196","","fixation","","",""
"1966","b_a montage/ba_124.jpg","66","image-keyboard-response","396","694368","0.0-3.0-1.196","","","Update","b","true"
"null","<div style=""font-size:60px;"">+</div>","null","html-keyboard-response","397","694879","0.0-3.0-0.197","","fixation","","",""
"2357","a_b montage/ab_025.jpg","76","image-keyboard-response","398","697239","0.0-3.0-1.197","","","Set_1_Only","l","true"
"null","<div style=""font-size:60px;"">+</div>","null","html-keyboard-response","399","697755","0.0-3.0-0.198","","fixation","","",""
"2216","b_a montage/ba_165.jpg","82","image-keyboard-response","400","699975","0.0-3.0-1.198","","","Set_2_Only","r","true"
"null","<div style=""font-size:60px;"">+</div>","null","html-keyboard-response","401","700500","0.0-3.0-0.199","","fixation","","",""
"3758","b_a montage/ba_138.jpg","76","image-keyboard-response","402","704265","0.0-3.0-1.199","","","Update","b","false"
"null","<div style=""font-size:60px;"">+</div>","null","html-keyboard-response","403","704774","0.0-3.0-0.200","","fixation","","",""
"3255","a_b montage/ab_028.jpg","78","image-keyboard-response","404","708032","0.0-3.0-1.200","","","Set_1_Only","l","false"
"null","<div style=""font-size:60px;"">+</div>","null","html-keyboard-response","405","708548","0.0-3.0-0.201","","fixation","","",""
"4838","a_b montage/ab_076.jpg","76","image-keyboard-response","406","713393","0.0-3.0-1.201","","","Repeat","l","true"
"null","<div style=""font-size:60px;"">+</div>","null","html-keyboard-response","407","713908","0.0-3.0-0.202","","fixation","","",""
"2317","b_a new/ba_012.jpg","78","image-keyboard-response","408","716232","0.0-3.0-1.202","","","Neither","n","true"
"null","<div style=""font-size:60px;"">+</div>","null","html-keyboard-response","409","716752","0.0-3.0-0.203","","fixation","","",""
"4329","a_b montage/ab_068.jpg","76","image-keyboard-response","410","721089","0.0-3.0-1.203","","","Repeat","l","true"
"null","<div style=""font-size:60px;"">+</div>","null","html-keyboard-response","411","721613","0.0-3.0-0.204","","fixation","","",""
"2295","b_a montage/ba_115.jpg","66","image-keyboard-response","412","723912","0.0-3.0-1.204","","","Update","b","true"
"null","<div style=""font-size:60px;"">+</div>","null","html-keyboard-response","413","724426","0.0-3.0-0.205","","fixation","","",""
"3800","b_a montage/ba_118.jpg","78","image-keyboard-response","414","728232","0.0-3.0-1.205","","","Update","b","false"
"null","<div style=""font-size:60px;"">+</div>","null","html-keyboard-response","415","728739","0.0-3.0-0.206","","fixation","","",""
"1656","a_b montage/ab_189.jpg","78","image-keyboard-response","416","730400","0.0-3.0-1.206","","","Set_2_Only","l","false"
"null","<div style=""font-size:60px;"">+</div>","null","html-keyboard-response","417","730911","0.0-3.0-0.207","","fixation","","",""
"1231","b_a new/ba_009.jpg","78","image-keyboard-response","418","732144","0.0-3.0-1.207","","","Neither","n","true"
