"rt","stimulus","key_press","trial_type","trial_index","time_elapsed","internal_node_id","responses","test_part","stim_type","correct_response","correct"
"2782","Press any key to begin.","13","html-keyboard-response","0","2782","0.0-0.0","","","","",""
"15432","","","survey-text","1","18216","0.0-1.0","{""Q0"":""Test121414"",""Q1"":""""}","","","",""
"27912","<p>For this phase you will see two similar images side by side on the screen I want you to tell us which of the items you have seen before in any of the previous sets of images. </p><p>If you have only seen the image on the left you will press the 'L' key on your keyboard.</p>If you have only seen the image on the right you will press the 'R' key on your keyboard.</p>If you have previously seen both of the images you will press the 'B' key on your keyboard.</p>If you have not seen either image you will press the 'N' key on your keyboard.</p><div style='width: 700px;'></div><p>Press any key to begin.</p>","13","html-keyboard-response","2","46130","0.0-2.0","","","","",""
"null","<div style=""font-size:60px;"">+</div>","null","html-keyboard-response","3","48668","0.0-3.0-0.0","","fixation","","",""
"5251","b_a montage/ba_038.jpg","66","image-keyboard-response","4","53921","0.0-3.0-1.0","","","Repeat","r","false"
"null","<div style=""font-size:60px;"">+</div>","null","html-keyboard-response","5","54427","0.0-3.0-0.1","","fixation","","",""
"3328","a_b new/ab_008.jpg","78","image-keyboard-response","6","57759","0.0-3.0-1.1","","","Neither","n","true"
"null","<div style=""font-size:60px;"">+</div>","null","html-keyboard-response","7","58271","0.0-3.0-0.2","","fixation","","",""
"2324","a_b montage/ab_109.jpg","78","image-keyboard-response","8","60599","0.0-3.0-1.2","","","Update","b","false"
"null","<div style=""font-size:60px;"">+</div>","null","html-keyboard-response","9","61100","0.0-3.0-0.3","","fixation","","",""
"4933","a_b montage/ab_088.jpg","66","image-keyboard-response","10","66035","0.0-3.0-1.3","","","Repeat","l","false"
"null","<div style=""font-size:60px;"">+</div>","null","html-keyboard-response","11","66536","0.0-3.0-0.4","","fixation","","",""
"1562","a_b montage/ab_067.jpg","66","image-keyboard-response","12","68104","0.0-3.0-1.4","","","Repeat","l","false"
"null","<div style=""font-size:60px;"">+</div>","null","html-keyboard-response","13","68615","0.0-3.0-0.5","","fixation","","",""
"1112","b_a montage/ba_174.jpg","66","image-keyboard-response","14","69729","0.0-3.0-1.5","","","Set_2_Only","r","false"
"null","<div style=""font-size:60px;"">+</div>","null","html-keyboard-response","15","70241","0.0-3.0-0.6","","fixation","","",""
"4749","a_b montage/ab_103.jpg","78","image-keyboard-response","16","74993","0.0-3.0-1.6","","","Update","b","false"
"null","<div style=""font-size:60px;"">+</div>","null","html-keyboard-response","17","75496","0.0-3.0-0.7","","fixation","","",""
"2009","a_b montage/ab_129.jpg","78","image-keyboard-response","18","77508","0.0-3.0-1.7","","","Update","b","false"
"null","<div style=""font-size:60px;"">+</div>","null","html-keyboard-response","19","78023","0.0-3.0-0.8","","fixation","","",""
"4471","a_b montage/ab_130.jpg","82","image-keyboard-response","20","82496","0.0-3.0-1.8","","","Update","b","false"
"null","<div style=""font-size:60px;"">+</div>","null","html-keyboard-response","21","83009","0.0-3.0-0.9","","fixation","","",""
"2819","a_b montage/ab_181.jpg","82","image-keyboard-response","22","85831","0.0-3.0-1.9","","","Set_2_Only","l","false"
"null","<div style=""font-size:60px;"">+</div>","null","html-keyboard-response","23","86351","0.0-3.0-0.10","","fixation","","",""
"2898","a_b montage/ab_179.jpg","76","image-keyboard-response","24","89253","0.0-3.0-1.10","","","Set_2_Only","l","true"
"null","<div style=""font-size:60px;"">+</div>","null","html-keyboard-response","25","89759","0.0-3.0-0.11","","fixation","","",""
"4112","a_b new/ab_016.jpg","78","image-keyboard-response","26","93875","0.0-3.0-1.11","","","Neither","n","true"
"null","<div style=""font-size:60px;"">+</div>","null","html-keyboard-response","27","94378","0.0-3.0-0.12","","fixation","","",""
"3830","a_b montage/ab_153.jpg","76","image-keyboard-response","28","98211","0.0-3.0-1.12","","","Update","b","false"
"null","<div style=""font-size:60px;"">+</div>","null","html-keyboard-response","29","98717","0.0-3.0-0.13","","fixation","","",""
"3604","b_a montage/ba_009.jpg","82","image-keyboard-response","30","102325","0.0-3.0-1.13","","","Set_1_Only","r","true"
"null","<div style=""font-size:60px;"">+</div>","null","html-keyboard-response","31","102837","0.0-3.0-0.14","","fixation","","",""
"2647","a_b montage/ab_141.jpg","66","image-keyboard-response","32","105487","0.0-3.0-1.14","","","Update","b","true"
"null","<div style=""font-size:60px;"">+</div>","null","html-keyboard-response","33","105995","0.0-3.0-0.15","","fixation","","",""
"2603","a_b montage/ab_079.jpg","66","image-keyboard-response","34","108601","0.0-3.0-1.15","","","Repeat","l","false"
"null","<div style=""font-size:60px;"">+</div>","null","html-keyboard-response","35","109118","0.0-3.0-0.16","","fixation","","",""
"null","b_a montage/ba_176.jpg","null","image-keyboard-response","36","119135","0.0-3.0-1.16","","","Set_2_Only","r","false"
"null","<div style=""font-size:60px;"">+</div>","null","html-keyboard-response","37","119652","0.0-3.0-0.17","","fixation","","",""
"3237","a_b montage/ab_017.jpg","76","image-keyboard-response","38","122893","0.0-3.0-1.17","","","Set_1_Only","l","true"
"null","<div style=""font-size:60px;"">+</div>","null","html-keyboard-response","39","123401","0.0-3.0-0.18","","fixation","","",""
"3726","a_b montage/ab_069.jpg","66","image-keyboard-response","40","127130","0.0-3.0-1.18","","","Repeat","l","false"
"null","<div style=""font-size:60px;"">+</div>","null","html-keyboard-response","41","127636","0.0-3.0-0.19","","fixation","","",""
"4249","a_b montage/ab_100.jpg","76","image-keyboard-response","42","131889","0.0-3.0-1.19","","","Update","b","false"
"null","<div style=""font-size:60px;"">+</div>","null","html-keyboard-response","43","132402","0.0-3.0-0.20","","fixation","","",""
"2480","a_b new/ab_001.jpg","78","image-keyboard-response","44","134886","0.0-3.0-1.20","","","Neither","n","true"
"null","<div style=""font-size:60px;"">+</div>","null","html-keyboard-response","45","135402","0.0-3.0-0.21","","fixation","","",""
"2657","b_a montage/ba_013.jpg","82","image-keyboard-response","46","138061","0.0-3.0-1.21","","","Set_1_Only","r","true"
"null","<div style=""font-size:60px;"">+</div>","null","html-keyboard-response","47","138575","0.0-3.0-0.22","","fixation","","",""
"2863","a_b montage/ab_066.jpg","66","image-keyboard-response","48","141441","0.0-3.0-1.22","","","Repeat","l","false"
"null","<div style=""font-size:60px;"">+</div>","null","html-keyboard-response","49","141951","0.0-3.0-0.23","","fixation","","",""
"3018","b_a montage/ba_041.jpg","82","image-keyboard-response","50","144972","0.0-3.0-1.23","","","Repeat","r","true"
"null","<div style=""font-size:60px;"">+</div>","null","html-keyboard-response","51","145482","0.0-3.0-0.24","","fixation","","",""
"null","b_a montage/ba_043.jpg","null","image-keyboard-response","52","155499","0.0-3.0-1.24","","","Repeat","r","false"
"null","<div style=""font-size:60px;"">+</div>","null","html-keyboard-response","53","156018","0.0-3.0-0.25","","fixation","","",""
"null","a_b montage/ab_080.jpg","null","image-keyboard-response","54","166021","0.0-3.0-1.25","","","Repeat","l","false"
"null","<div style=""font-size:60px;"">+</div>","null","html-keyboard-response","55","166536","0.0-3.0-0.26","","fixation","","",""
"3170","a_b montage/ab_131.jpg","66","image-keyboard-response","56","169708","0.0-3.0-1.26","","","Update","b","true"
"null","<div style=""font-size:60px;"">+</div>","null","html-keyboard-response","57","170227","0.0-3.0-0.27","","fixation","","",""
"2201","a_b montage/ab_147.jpg","66","image-keyboard-response","58","172429","0.0-3.0-1.27","","","Update","b","true"
"null","<div style=""font-size:60px;"">+</div>","null","html-keyboard-response","59","172940","0.0-3.0-0.28","","fixation","","",""
"3952","b_a montage/ba_047.jpg","82","image-keyboard-response","60","176896","0.0-3.0-1.28","","","Repeat","r","true"
"null","<div style=""font-size:60px;"">+</div>","null","html-keyboard-response","61","177425","0.0-3.0-0.29","","fixation","","",""
"3604","b_a montage/ba_168.jpg","76","image-keyboard-response","62","181033","0.0-3.0-1.29","","","Set_2_Only","r","false"
"null","<div style=""font-size:60px;"">+</div>","null","html-keyboard-response","63","181550","0.0-3.0-0.30","","fixation","","",""
"2618","a_b montage/ab_104.jpg","66","image-keyboard-response","64","184172","0.0-3.0-1.30","","","Update","b","true"
"null","<div style=""font-size:60px;"">+</div>","null","html-keyboard-response","65","184691","0.0-3.0-0.31","","fixation","","",""
"3014","a_b montage/ab_159.jpg","82","image-keyboard-response","66","187708","0.0-3.0-1.31","","","Update","b","false"
"null","<div style=""font-size:60px;"">+</div>","null","html-keyboard-response","67","188223","0.0-3.0-0.32","","fixation","","",""
"4116","a_b montage/ab_091.jpg","76","image-keyboard-response","68","192341","0.0-3.0-1.32","","","Repeat","l","true"
"null","<div style=""font-size:60px;"">+</div>","null","html-keyboard-response","69","192849","0.0-3.0-0.33","","fixation","","",""
"3307","a_b montage/ab_185.jpg","76","image-keyboard-response","70","196158","0.0-3.0-1.33","","","Set_2_Only","l","true"
"null","<div style=""font-size:60px;"">+</div>","null","html-keyboard-response","71","196677","0.0-3.0-0.34","","fixation","","",""
"3640","a_b montage/ab_107.jpg","66","image-keyboard-response","72","200320","0.0-3.0-1.34","","","Update","b","true"
"null","<div style=""font-size:60px;"">+</div>","null","html-keyboard-response","73","200833","0.0-3.0-0.35","","fixation","","",""
"2200","b_a montage/ba_163.jpg","78","image-keyboard-response","74","203037","0.0-3.0-1.35","","","Set_2_Only","r","false"
"null","<div style=""font-size:60px;"">+</div>","null","html-keyboard-response","75","203552","0.0-3.0-0.36","","fixation","","",""
"2086","a_b new/ab_011.jpg","78","image-keyboard-response","76","205640","0.0-3.0-1.36","","","Neither","n","true"
"null","<div style=""font-size:60px;"">+</div>","null","html-keyboard-response","77","206162","0.0-3.0-0.37","","fixation","","",""
"1584","a_b montage/ab_182.jpg","78","image-keyboard-response","78","207747","0.0-3.0-1.37","","","Set_2_Only","l","false"
"null","<div style=""font-size:60px;"">+</div>","null","html-keyboard-response","79","208271","0.0-3.0-0.38","","fixation","","",""
"4677","a_b montage/ab_188.jpg","76","image-keyboard-response","80","212951","0.0-3.0-1.38","","","Set_2_Only","l","true"
"null","<div style=""font-size:60px;"">+</div>","null","html-keyboard-response","81","213459","0.0-3.0-0.39","","fixation","","",""
"3475","a_b montage/ab_099.jpg","76","image-keyboard-response","82","216937","0.0-3.0-1.39","","","Update","b","false"
"null","<div style=""font-size:60px;"">+</div>","null","html-keyboard-response","83","217450","0.0-3.0-0.40","","fixation","","",""
"3247","a_b montage/ab_127.jpg","66","image-keyboard-response","84","220699","0.0-3.0-1.40","","","Update","b","true"
"null","<div style=""font-size:60px;"">+</div>","null","html-keyboard-response","85","221209","0.0-3.0-0.41","","fixation","","",""
"2511","b_a montage/ba_050.jpg","82","image-keyboard-response","86","223722","0.0-3.0-1.41","","","Repeat","r","true"
"null","<div style=""font-size:60px;"">+</div>","null","html-keyboard-response","87","224241","0.0-3.0-0.42","","fixation","","",""
"2185","a_b montage/ab_142.jpg","66","image-keyboard-response","88","226429","0.0-3.0-1.42","","","Update","b","true"
"null","<div style=""font-size:60px;"">+</div>","null","html-keyboard-response","89","226942","0.0-3.0-0.43","","fixation","","",""
"1495","b_a montage/ba_056.jpg","66","image-keyboard-response","90","228441","0.0-3.0-1.43","","","Repeat","r","false"
"null","<div style=""font-size:60px;"">+</div>","null","html-keyboard-response","91","228960","0.0-3.0-0.44","","fixation","","",""
"1749","a_b montage/ab_150.jpg","66","image-keyboard-response","92","230712","0.0-3.0-1.44","","","Update","b","true"
"null","<div style=""font-size:60px;"">+</div>","null","html-keyboard-response","93","231213","0.0-3.0-0.45","","fixation","","",""
"4269","a_b montage/ab_020.jpg","76","image-keyboard-response","94","235485","0.0-3.0-1.45","","","Set_1_Only","l","true"
"null","<div style=""font-size:60px;"">+</div>","null","html-keyboard-response","95","236000","0.0-3.0-0.46","","fixation","","",""
"3037","a_b montage/ab_139.jpg","76","image-keyboard-response","96","239039","0.0-3.0-1.46","","","Update","b","false"
"null","<div style=""font-size:60px;"">+</div>","null","html-keyboard-response","97","239555","0.0-3.0-0.47","","fixation","","",""
"4703","a_b montage/ab_149.jpg","82","image-keyboard-response","98","244260","0.0-3.0-1.47","","","Update","b","false"
"null","<div style=""font-size:60px;"">+</div>","null","html-keyboard-response","99","244773","0.0-3.0-0.48","","fixation","","",""
"1917","a_b new/ab_003.jpg","78","image-keyboard-response","100","246694","0.0-3.0-1.48","","","Neither","n","true"
"null","<div style=""font-size:60px;"">+</div>","null","html-keyboard-response","101","247204","0.0-3.0-0.49","","fixation","","",""
"2391","a_b montage/ab_098.jpg","82","image-keyboard-response","102","249598","0.0-3.0-1.49","","","Update","b","false"
"null","<div style=""font-size:60px;"">+</div>","null","html-keyboard-response","103","250118","0.0-3.0-0.50","","fixation","","",""
"3062","a_b montage/ab_084.jpg","82","image-keyboard-response","104","253183","0.0-3.0-1.50","","","Repeat","l","false"
"null","<div style=""font-size:60px;"">+</div>","null","html-keyboard-response","105","253696","0.0-3.0-0.51","","fixation","","",""
"3891","a_b montage/ab_177.jpg","82","image-keyboard-response","106","257589","0.0-3.0-1.51","","","Set_2_Only","l","false"
"null","<div style=""font-size:60px;"">+</div>","null","html-keyboard-response","107","258104","0.0-3.0-0.52","","fixation","","",""
"2788","a_b montage/ab_111.jpg","76","image-keyboard-response","108","260895","0.0-3.0-1.52","","","Update","b","false"
"null","<div style=""font-size:60px;"">+</div>","null","html-keyboard-response","109","261415","0.0-3.0-0.53","","fixation","","",""
"null","a_b montage/ab_090.jpg","null","image-keyboard-response","110","271434","0.0-3.0-1.53","","","Repeat","l","false"
"null","<div style=""font-size:60px;"">+</div>","null","html-keyboard-response","111","271949","0.0-3.0-0.54","","fixation","","",""
"4174","b_a montage/ba_012.jpg","82","image-keyboard-response","112","276125","0.0-3.0-1.54","","","Set_1_Only","r","true"
"null","<div style=""font-size:60px;"">+</div>","null","html-keyboard-response","113","276652","0.0-3.0-0.55","","fixation","","",""
"4233","b_a montage/ba_039.jpg","76","image-keyboard-response","114","280889","0.0-3.0-1.55","","","Repeat","r","false"
"null","<div style=""font-size:60px;"">+</div>","null","html-keyboard-response","115","281397","0.0-3.0-0.56","","fixation","","",""
"3529","a_b montage/ab_125.jpg","82","image-keyboard-response","116","284928","0.0-3.0-1.56","","","Update","b","false"
"null","<div style=""font-size:60px;"">+</div>","null","html-keyboard-response","117","285438","0.0-3.0-0.57","","fixation","","",""
"3796","b_a montage/ba_172.jpg","82","image-keyboard-response","118","289237","0.0-3.0-1.57","","","Set_2_Only","r","true"
"null","<div style=""font-size:60px;"">+</div>","null","html-keyboard-response","119","289752","0.0-3.0-0.58","","fixation","","",""
"2422","b_a montage/ba_046.jpg","66","image-keyboard-response","120","292176","0.0-3.0-1.58","","","Repeat","r","false"
"null","<div style=""font-size:60px;"">+</div>","null","html-keyboard-response","121","292699","0.0-3.0-0.59","","fixation","","",""
"2946","b_a montage/ba_004.jpg","82","image-keyboard-response","122","295647","0.0-3.0-1.59","","","Set_1_Only","r","true"
"null","<div style=""font-size:60px;"">+</div>","null","html-keyboard-response","123","296158","0.0-3.0-0.60","","fixation","","",""
"2900","b_a montage/ba_062.jpg","82","image-keyboard-response","124","299060","0.0-3.0-1.60","","","Repeat","r","true"
"null","<div style=""font-size:60px;"">+</div>","null","html-keyboard-response","125","299580","0.0-3.0-0.61","","fixation","","",""
"3685","b_a montage/ba_166.jpg","76","image-keyboard-response","126","303267","0.0-3.0-1.61","","","Set_2_Only","r","false"
"null","<div style=""font-size:60px;"">+</div>","null","html-keyboard-response","127","303784","0.0-3.0-0.62","","fixation","","",""
"2826","a_b montage/ab_148.jpg","82","image-keyboard-response","128","306612","0.0-3.0-1.62","","","Update","b","false"
"null","<div style=""font-size:60px;"">+</div>","null","html-keyboard-response","129","307127","0.0-3.0-0.63","","fixation","","",""
"3214","a_b montage/ab_108.jpg","76","image-keyboard-response","130","310346","0.0-3.0-1.63","","","Update","b","false"
"null","<div style=""font-size:60px;"">+</div>","null","html-keyboard-response","131","310861","0.0-3.0-0.64","","fixation","","",""
"2829","a_b new/ab_010.jpg","78","image-keyboard-response","132","313694","0.0-3.0-1.64","","","Neither","n","true"
"null","<div style=""font-size:60px;"">+</div>","null","html-keyboard-response","133","314206","0.0-3.0-0.65","","fixation","","",""
"3403","b_a montage/ba_011.jpg","76","image-keyboard-response","134","317612","0.0-3.0-1.65","","","Set_1_Only","r","false"
"null","<div style=""font-size:60px;"">+</div>","null","html-keyboard-response","135","318127","0.0-3.0-0.66","","fixation","","",""
"3065","a_b montage/ab_180.jpg","78","image-keyboard-response","136","321195","0.0-3.0-1.66","","","Set_2_Only","l","false"
"null","<div style=""font-size:60px;"">+</div>","null","html-keyboard-response","137","321706","0.0-3.0-0.67","","fixation","","",""
"5413","b_a montage/ba_015.jpg","76","image-keyboard-response","138","327121","0.0-3.0-1.67","","","Set_1_Only","r","false"
"null","<div style=""font-size:60px;"">+</div>","null","html-keyboard-response","139","327629","0.0-3.0-0.68","","fixation","","",""
"2427","b_a montage/ba_058.jpg","66","image-keyboard-response","140","330058","0.0-3.0-1.68","","","Repeat","r","false"
"null","<div style=""font-size:60px;"">+</div>","null","html-keyboard-response","141","330569","0.0-3.0-0.69","","fixation","","",""
"1766","a_b montage/ab_154.jpg","66","image-keyboard-response","142","332339","0.0-3.0-1.69","","","Update","b","true"
"null","<div style=""font-size:60px;"">+</div>","null","html-keyboard-response","143","332851","0.0-3.0-0.70","","fixation","","",""
"2891","a_b montage/ab_112.jpg","82","image-keyboard-response","144","335745","0.0-3.0-1.70","","","Update","b","false"
"null","<div style=""font-size:60px;"">+</div>","null","html-keyboard-response","145","336257","0.0-3.0-0.71","","fixation","","",""
"2874","a_b montage/ab_183.jpg","66","image-keyboard-response","146","339135","0.0-3.0-1.71","","","Set_2_Only","l","false"
"null","<div style=""font-size:60px;"">+</div>","null","html-keyboard-response","147","339647","0.0-3.0-0.72","","fixation","","",""
"3580","a_b montage/ab_192.jpg","76","image-keyboard-response","148","343230","0.0-3.0-1.72","","","Set_2_Only","l","true"
"null","<div style=""font-size:60px;"">+</div>","null","html-keyboard-response","149","343729","0.0-3.0-0.73","","fixation","","",""
"4297","a_b montage/ab_113.jpg","76","image-keyboard-response","150","348032","0.0-3.0-1.73","","","Update","b","false"
"null","<div style=""font-size:60px;"">+</div>","null","html-keyboard-response","151","348555","0.0-3.0-0.74","","fixation","","",""
"3174","b_a montage/ba_037.jpg","82","image-keyboard-response","152","351733","0.0-3.0-1.74","","","Repeat","r","true"
"null","<div style=""font-size:60px;"">+</div>","null","html-keyboard-response","153","352257","0.0-3.0-0.75","","fixation","","",""
"2506","a_b montage/ab_019.jpg","78","image-keyboard-response","154","354766","0.0-3.0-1.75","","","Set_1_Only","l","false"
"null","<div style=""font-size:60px;"">+</div>","null","html-keyboard-response","155","355283","0.0-3.0-0.76","","fixation","","",""
"4256","a_b montage/ab_018.jpg","76","image-keyboard-response","156","359541","0.0-3.0-1.76","","","Set_1_Only","l","true"
"null","<div style=""font-size:60px;"">+</div>","null","html-keyboard-response","157","360069","0.0-3.0-0.77","","fixation","","",""
"2522","a_b montage/ab_085.jpg","66","image-keyboard-response","158","362594","0.0-3.0-1.77","","","Repeat","l","false"
"null","<div style=""font-size:60px;"">+</div>","null","html-keyboard-response","159","363119","0.0-3.0-0.78","","fixation","","",""
"1814","b_a montage/ba_034.jpg","66","image-keyboard-response","160","364937","0.0-3.0-1.78","","","Repeat","r","false"
"null","<div style=""font-size:60px;"">+</div>","null","html-keyboard-response","161","365448","0.0-3.0-0.79","","fixation","","",""
"2796","a_b montage/ab_117.jpg","66","image-keyboard-response","162","368246","0.0-3.0-1.79","","","Update","b","true"
"null","<div style=""font-size:60px;"">+</div>","null","html-keyboard-response","163","368761","0.0-3.0-0.80","","fixation","","",""
"2634","a_b montage/ab_082.jpg","76","image-keyboard-response","164","371399","0.0-3.0-1.80","","","Repeat","l","true"
"null","<div style=""font-size:60px;"">+</div>","null","html-keyboard-response","165","371902","0.0-3.0-0.81","","fixation","","",""
"3224","a_b montage/ab_092.jpg","76","image-keyboard-response","166","375127","0.0-3.0-1.81","","","Repeat","l","true"
"null","<div style=""font-size:60px;"">+</div>","null","html-keyboard-response","167","375645","0.0-3.0-0.82","","fixation","","",""
"2747","b_a montage/ba_060.jpg","66","image-keyboard-response","168","378395","0.0-3.0-1.82","","","Repeat","r","false"
"null","<div style=""font-size:60px;"">+</div>","null","html-keyboard-response","169","378907","0.0-3.0-0.83","","fixation","","",""
"3758","b_a montage/ba_061.jpg","76","image-keyboard-response","170","382670","0.0-3.0-1.83","","","Repeat","r","false"
"null","<div style=""font-size:60px;"">+</div>","null","html-keyboard-response","171","383188","0.0-3.0-0.84","","fixation","","",""
"3202","a_b montage/ab_158.jpg","66","image-keyboard-response","172","386392","0.0-3.0-1.84","","","Update","b","true"
"null","<div style=""font-size:60px;"">+</div>","null","html-keyboard-response","173","386907","0.0-3.0-0.85","","fixation","","",""
"null","a_b montage/ab_075.jpg","null","image-keyboard-response","174","396921","0.0-3.0-1.85","","","Repeat","l","false"
"null","<div style=""font-size:60px;"">+</div>","null","html-keyboard-response","175","397436","0.0-3.0-0.86","","fixation","","",""
"2420","a_b montage/ab_086.jpg","66","image-keyboard-response","176","399858","0.0-3.0-1.86","","","Repeat","l","false"
"null","<div style=""font-size:60px;"">+</div>","null","html-keyboard-response","177","400362","0.0-3.0-0.87","","fixation","","",""
"4666","a_b montage/ab_190.jpg","76","image-keyboard-response","178","405032","0.0-3.0-1.87","","","Set_2_Only","l","true"
"null","<div style=""font-size:60px;"">+</div>","null","html-keyboard-response","179","405564","0.0-3.0-0.88","","fixation","","",""
"2421","b_a montage/ba_055.jpg","66","image-keyboard-response","180","407989","0.0-3.0-1.88","","","Repeat","r","false"
"null","<div style=""font-size:60px;"">+</div>","null","html-keyboard-response","181","408501","0.0-3.0-0.89","","fixation","","",""
"1605","a_b montage/ab_135.jpg","66","image-keyboard-response","182","410109","0.0-3.0-1.89","","","Update","b","true"
"null","<div style=""font-size:60px;"">+</div>","null","html-keyboard-response","183","410612","0.0-3.0-0.90","","fixation","","",""
"3129","a_b montage/ab_137.jpg","76","image-keyboard-response","184","413743","0.0-3.0-1.90","","","Update","b","false"
"null","<div style=""font-size:60px;"">+</div>","null","html-keyboard-response","185","414251","0.0-3.0-0.91","","fixation","","",""
"2650","b_a montage/ba_006.jpg","66","image-keyboard-response","186","416905","0.0-3.0-1.91","","","Set_1_Only","r","false"
"null","<div style=""font-size:60px;"">+</div>","null","html-keyboard-response","187","417409","0.0-3.0-0.92","","fixation","","",""
"1675","b_a montage/ba_170.jpg","66","image-keyboard-response","188","419088","0.0-3.0-1.92","","","Set_2_Only","r","false"
"null","<div style=""font-size:60px;"">+</div>","null","html-keyboard-response","189","419596","0.0-3.0-0.93","","fixation","","",""
"1919","b_a montage/ba_051.jpg","76","image-keyboard-response","190","421520","0.0-3.0-1.93","","","Repeat","r","false"
"null","<div style=""font-size:60px;"">+</div>","null","html-keyboard-response","191","422019","0.0-3.0-0.94","","fixation","","",""
"1719","a_b montage/ab_128.jpg","66","image-keyboard-response","192","423740","0.0-3.0-1.94","","","Update","b","true"
"null","<div style=""font-size:60px;"">+</div>","null","html-keyboard-response","193","424269","0.0-3.0-0.95","","fixation","","",""
"3052","a_b montage/ab_145.jpg","76","image-keyboard-response","194","427323","0.0-3.0-1.95","","","Update","b","false"
"null","<div style=""font-size:60px;"">+</div>","null","html-keyboard-response","195","427831","0.0-3.0-0.96","","fixation","","",""
"4843","a_b montage/ab_031.jpg","82","image-keyboard-response","196","432678","0.0-3.0-1.96","","","Set_1_Only","l","false"
"null","<div style=""font-size:60px;"">+</div>","null","html-keyboard-response","197","433207","0.0-3.0-0.97","","fixation","","",""
"3589","a_b montage/ab_071.jpg","76","image-keyboard-response","198","436801","0.0-3.0-1.97","","","Repeat","l","true"
"null","<div style=""font-size:60px;"">+</div>","null","html-keyboard-response","199","437316","0.0-3.0-0.98","","fixation","","",""
"3286","b_a montage/ba_120.jpg","76","image-keyboard-response","200","440608","0.0-3.0-1.98","","","Update","b","false"
"null","<div style=""font-size:60px;"">+</div>","null","html-keyboard-response","201","441119","0.0-3.0-0.99","","fixation","","",""
"2714","b_a montage/ba_143.jpg","76","image-keyboard-response","202","443837","0.0-3.0-1.99","","","Update","b","false"
"null","<div style=""font-size:60px;"">+</div>","null","html-keyboard-response","203","444360","0.0-3.0-0.100","","fixation","","",""
"2323","b_a montage/ba_146.jpg","76","image-keyboard-response","204","446687","0.0-3.0-1.100","","","Update","b","false"
"null","<div style=""font-size:60px;"">+</div>","null","html-keyboard-response","205","447193","0.0-3.0-0.101","","fixation","","",""
"2065","a_b new/ab_015.jpg","78","image-keyboard-response","206","449262","0.0-3.0-1.101","","","Neither","n","true"
"null","<div style=""font-size:60px;"">+</div>","null","html-keyboard-response","207","449763","0.0-3.0-0.102","","fixation","","",""
"3357","b_a montage/ba_097.jpg","66","image-keyboard-response","208","453123","0.0-3.0-1.102","","","Update","b","true"
"null","<div style=""font-size:60px;"">+</div>","null","html-keyboard-response","209","453631","0.0-3.0-0.103","","fixation","","",""
"1870","b_a montage/ba_036.jpg","76","image-keyboard-response","210","455504","0.0-3.0-1.103","","","Repeat","r","false"
"null","<div style=""font-size:60px;"">+</div>","null","html-keyboard-response","211","456005","0.0-3.0-0.104","","fixation","","",""
"2174","b_a montage/ba_136.jpg","66","image-keyboard-response","212","458183","0.0-3.0-1.104","","","Update","b","true"
"null","<div style=""font-size:60px;"">+</div>","null","html-keyboard-response","213","458689","0.0-3.0-0.105","","fixation","","",""
"2385","a_b montage/ab_073.jpg","66","image-keyboard-response","214","461079","0.0-3.0-1.105","","","Repeat","l","false"
"null","<div style=""font-size:60px;"">+</div>","null","html-keyboard-response","215","461582","0.0-3.0-0.106","","fixation","","",""
"2106","b_a montage/ba_133.jpg","76","image-keyboard-response","216","463692","0.0-3.0-1.106","","","Update","b","false"
"null","<div style=""font-size:60px;"">+</div>","null","html-keyboard-response","217","464209","0.0-3.0-0.107","","fixation","","",""
"1432","b_a montage/ba_045.jpg","66","image-keyboard-response","218","465643","0.0-3.0-1.107","","","Repeat","r","false"
"null","<div style=""font-size:60px;"">+</div>","null","html-keyboard-response","219","466148","0.0-3.0-0.108","","fixation","","",""
"1382","a_b montage/ab_081.jpg","66","image-keyboard-response","220","467532","0.0-3.0-1.108","","","Repeat","l","false"
"null","<div style=""font-size:60px;"">+</div>","null","html-keyboard-response","221","468039","0.0-3.0-0.109","","fixation","","",""
"1728","a_b montage/ab_089.jpg","66","image-keyboard-response","222","469770","0.0-3.0-1.109","","","Repeat","l","false"
"null","<div style=""font-size:60px;"">+</div>","null","html-keyboard-response","223","470274","0.0-3.0-0.110","","fixation","","",""
"1680","a_b new/ab_005.jpg","78","image-keyboard-response","224","471958","0.0-3.0-1.110","","","Neither","n","true"
"null","<div style=""font-size:60px;"">+</div>","null","html-keyboard-response","225","472476","0.0-3.0-0.111","","fixation","","",""
"1909","b_a montage/ba_053.jpg","76","image-keyboard-response","226","474387","0.0-3.0-1.111","","","Repeat","r","false"
"null","<div style=""font-size:60px;"">+</div>","null","html-keyboard-response","227","474914","0.0-3.0-0.112","","fixation","","",""
"1706","b_a montage/ba_119.jpg","66","image-keyboard-response","228","476622","0.0-3.0-1.112","","","Update","b","true"
"null","<div style=""font-size:60px;"">+</div>","null","html-keyboard-response","229","477132","0.0-3.0-0.113","","fixation","","",""
"2511","b_a montage/ba_171.jpg","66","image-keyboard-response","230","479647","0.0-3.0-1.113","","","Set_2_Only","r","false"
"null","<div style=""font-size:60px;"">+</div>","null","html-keyboard-response","231","480148","0.0-3.0-0.114","","fixation","","",""
"1728","b_a montage/ba_110.jpg","66","image-keyboard-response","232","481879","0.0-3.0-1.114","","","Update","b","true"
"null","<div style=""font-size:60px;"">+</div>","null","html-keyboard-response","233","482399","0.0-3.0-0.115","","fixation","","",""
"1428","b_a montage/ba_116.jpg","66","image-keyboard-response","234","483831","0.0-3.0-1.115","","","Update","b","true"
"null","<div style=""font-size:60px;"">+</div>","null","html-keyboard-response","235","484336","0.0-3.0-0.116","","fixation","","",""
"1925","a_b montage/ab_024.jpg","66","image-keyboard-response","236","486265","0.0-3.0-1.116","","","Set_1_Only","l","false"
"null","<div style=""font-size:60px;"">+</div>","null","html-keyboard-response","237","486775","0.0-3.0-0.117","","fixation","","",""
"2139","a_b montage/ab_026.jpg","76","image-keyboard-response","238","488916","0.0-3.0-1.117","","","Set_1_Only","l","true"
"null","<div style=""font-size:60px;"">+</div>","null","html-keyboard-response","239","489431","0.0-3.0-0.118","","fixation","","",""
"3004","b_a montage/ba_052.jpg","82","image-keyboard-response","240","492438","0.0-3.0-1.118","","","Repeat","r","true"
"null","<div style=""font-size:60px;"">+</div>","null","html-keyboard-response","241","492961","0.0-3.0-0.119","","fixation","","",""
"2724","a_b montage/ab_094.jpg","66","image-keyboard-response","242","495689","0.0-3.0-1.119","","","Repeat","l","false"
"null","<div style=""font-size:60px;"">+</div>","null","html-keyboard-response","243","496197","0.0-3.0-0.120","","fixation","","",""
"2304","b_a montage/ba_101.jpg","82","image-keyboard-response","244","498504","0.0-3.0-1.120","","","Update","b","false"
"null","<div style=""font-size:60px;"">+</div>","null","html-keyboard-response","245","499009","0.0-3.0-0.121","","fixation","","",""
"2303","b_a montage/ba_152.jpg","76","image-keyboard-response","246","501315","0.0-3.0-1.121","","","Update","b","false"
"null","<div style=""font-size:60px;"">+</div>","null","html-keyboard-response","247","501822","0.0-3.0-0.122","","fixation","","",""
"2589","a_b montage/ab_093.jpg","76","image-keyboard-response","248","504413","0.0-3.0-1.122","","","Repeat","l","true"
"null","<div style=""font-size:60px;"">+</div>","null","html-keyboard-response","249","504916","0.0-3.0-0.123","","fixation","","",""
"1972","a_b new/ab_007.jpg","78","image-keyboard-response","250","506891","0.0-3.0-1.123","","","Neither","n","true"
"null","<div style=""font-size:60px;"">+</div>","null","html-keyboard-response","251","507409","0.0-3.0-0.124","","fixation","","",""
"2153","b_a montage/ba_102.jpg","76","image-keyboard-response","252","509564","0.0-3.0-1.124","","","Update","b","false"
"null","<div style=""font-size:60px;"">+</div>","null","html-keyboard-response","253","510076","0.0-3.0-0.125","","fixation","","",""
"2519","a_b montage/ab_021.jpg","82","image-keyboard-response","254","512598","0.0-3.0-1.125","","","Set_1_Only","l","false"
"null","<div style=""font-size:60px;"">+</div>","null","html-keyboard-response","255","513123","0.0-3.0-0.126","","fixation","","",""
"2508","a_b montage/ab_065.jpg","76","image-keyboard-response","256","515634","0.0-3.0-1.126","","","Repeat","l","true"
"null","<div style=""font-size:60px;"">+</div>","null","html-keyboard-response","257","516155","0.0-3.0-0.127","","fixation","","",""
"2065","a_b new/ab_002.jpg","78","image-keyboard-response","258","518225","0.0-3.0-1.127","","","Neither","n","true"
"null","<div style=""font-size:60px;"">+</div>","null","html-keyboard-response","259","518735","0.0-3.0-0.128","","fixation","","",""
"1888","b_a montage/ba_057.jpg","76","image-keyboard-response","260","520624","0.0-3.0-1.128","","","Repeat","r","false"
"null","<div style=""font-size:60px;"">+</div>","null","html-keyboard-response","261","521139","0.0-3.0-0.129","","fixation","","",""
"2485","b_a montage/ba_167.jpg","76","image-keyboard-response","262","523626","0.0-3.0-1.129","","","Set_2_Only","r","false"
"null","<div style=""font-size:60px;"">+</div>","null","html-keyboard-response","263","524141","0.0-3.0-0.130","","fixation","","",""
"2867","b_a montage/ba_160.jpg","66","image-keyboard-response","264","527009","0.0-3.0-1.130","","","Update","b","true"
"null","<div style=""font-size:60px;"">+</div>","null","html-keyboard-response","265","527522","0.0-3.0-0.131","","fixation","","",""
"1912","b_a montage/ba_005.jpg","78","image-keyboard-response","266","529439","0.0-3.0-1.131","","","Set_1_Only","r","false"
"null","<div style=""font-size:60px;"">+</div>","null","html-keyboard-response","267","529953","0.0-3.0-0.132","","fixation","","",""
"2728","b_a montage/ba_140.jpg","76","image-keyboard-response","268","532684","0.0-3.0-1.132","","","Update","b","false"
"null","<div style=""font-size:60px;"">+</div>","null","html-keyboard-response","269","533204","0.0-3.0-0.133","","fixation","","",""
"1599","b_a new/ba_006.jpg","78","image-keyboard-response","270","534805","0.0-3.0-1.133","","","Neither","n","true"
"null","<div style=""font-size:60px;"">+</div>","null","html-keyboard-response","271","535313","0.0-3.0-0.134","","fixation","","",""
"2530","b_a montage/ba_123.jpg","66","image-keyboard-response","272","537847","0.0-3.0-1.134","","","Update","b","true"
"null","<div style=""font-size:60px;"">+</div>","null","html-keyboard-response","273","538360","0.0-3.0-0.135","","fixation","","",""
"3256","b_a montage/ba_033.jpg","82","image-keyboard-response","274","541620","0.0-3.0-1.135","","","Repeat","r","true"
"null","<div style=""font-size:60px;"">+</div>","null","html-keyboard-response","275","542125","0.0-3.0-0.136","","fixation","","",""
"3612","a_b montage/ab_077.jpg","76","image-keyboard-response","276","545740","0.0-3.0-1.136","","","Repeat","l","true"
"null","<div style=""font-size:60px;"">+</div>","null","html-keyboard-response","277","546250","0.0-3.0-0.137","","fixation","","",""
"2459","a_b montage/ab_032.jpg","76","image-keyboard-response","278","548712","0.0-3.0-1.137","","","Set_1_Only","l","true"
"null","<div style=""font-size:60px;"">+</div>","null","html-keyboard-response","279","549230","0.0-3.0-0.138","","fixation","","",""
"2787","b_a montage/ba_156.jpg","66","image-keyboard-response","280","552021","0.0-3.0-1.138","","","Update","b","true"
"null","<div style=""font-size:60px;"">+</div>","null","html-keyboard-response","281","552534","0.0-3.0-0.139","","fixation","","",""
"4496","a_b montage/ab_022.jpg","82","image-keyboard-response","282","557032","0.0-3.0-1.139","","","Set_1_Only","l","false"
"null","<div style=""font-size:60px;"">+</div>","null","html-keyboard-response","283","557557","0.0-3.0-0.140","","fixation","","",""
"null","b_a montage/ba_114.jpg","null","image-keyboard-response","284","567573","0.0-3.0-1.140","","","Update","b","false"
"null","<div style=""font-size:60px;"">+</div>","null","html-keyboard-response","285","568090","0.0-3.0-0.141","","fixation","","",""
"3345","b_a new/ba_013.jpg","82","image-keyboard-response","286","571438","0.0-3.0-1.141","","","Neither","n","false"
"null","<div style=""font-size:60px;"">+</div>","null","html-keyboard-response","287","571949","0.0-3.0-0.142","","fixation","","",""
"1898","a_b montage/ab_023.jpg","76","image-keyboard-response","288","573849","0.0-3.0-1.142","","","Set_1_Only","l","true"
"null","<div style=""font-size:60px;"">+</div>","null","html-keyboard-response","289","574355","0.0-3.0-0.143","","fixation","","",""
"2408","a_b montage/ab_087.jpg","66","image-keyboard-response","290","576766","0.0-3.0-1.143","","","Repeat","l","false"
"null","<div style=""font-size:60px;"">+</div>","null","html-keyboard-response","291","577278","0.0-3.0-0.144","","fixation","","",""
"2072","b_a montage/ba_155.jpg","76","image-keyboard-response","292","579355","0.0-3.0-1.144","","","Update","b","false"
"null","<div style=""font-size:60px;"">+</div>","null","html-keyboard-response","293","579872","0.0-3.0-0.145","","fixation","","",""
"4278","b_a montage/ba_002.jpg","82","image-keyboard-response","294","584151","0.0-3.0-1.145","","","Set_1_Only","r","true"
"null","<div style=""font-size:60px;"">+</div>","null","html-keyboard-response","295","584670","0.0-3.0-0.146","","fixation","","",""
"1979","b_a montage/ba_161.jpg","82","image-keyboard-response","296","586652","0.0-3.0-1.146","","","Set_2_Only","r","true"
"null","<div style=""font-size:60px;"">+</div>","null","html-keyboard-response","297","587153","0.0-3.0-0.147","","fixation","","",""
"2543","a_b montage/ab_029.jpg","66","image-keyboard-response","298","589698","0.0-3.0-1.147","","","Set_1_Only","l","false"
"null","<div style=""font-size:60px;"">+</div>","null","html-keyboard-response","299","590200","0.0-3.0-0.148","","fixation","","",""
"1578","a_b montage/ab_030.jpg","66","image-keyboard-response","300","591782","0.0-3.0-1.148","","","Set_1_Only","l","false"
"null","<div style=""font-size:60px;"">+</div>","null","html-keyboard-response","301","592295","0.0-3.0-0.149","","fixation","","",""
"2798","b_a new/ba_004.jpg","76","image-keyboard-response","302","595097","0.0-3.0-1.149","","","Neither","n","false"
"null","<div style=""font-size:60px;"">+</div>","null","html-keyboard-response","303","595622","0.0-3.0-0.150","","fixation","","",""
"4149","b_a montage/ba_049.jpg","82","image-keyboard-response","304","599777","0.0-3.0-1.150","","","Repeat","r","true"
"null","<div style=""font-size:60px;"">+</div>","null","html-keyboard-response","305","600279","0.0-3.0-0.151","","fixation","","",""
"4408","a_b montage/ab_027.jpg","82","image-keyboard-response","306","604691","0.0-3.0-1.151","","","Set_1_Only","l","false"
"null","<div style=""font-size:60px;"">+</div>","null","html-keyboard-response","307","605202","0.0-3.0-0.152","","fixation","","",""
"1935","b_a montage/ba_008.jpg","76","image-keyboard-response","308","607139","0.0-3.0-1.152","","","Set_1_Only","r","false"
"null","<div style=""font-size:60px;"">+</div>","null","html-keyboard-response","309","607655","0.0-3.0-0.153","","fixation","","",""
"1888","b_a montage/ba_048.jpg","76","image-keyboard-response","310","609547","0.0-3.0-1.153","","","Repeat","r","false"
"null","<div style=""font-size:60px;"">+</div>","null","html-keyboard-response","311","610061","0.0-3.0-0.154","","fixation","","",""
"2067","a_b montage/ab_191.jpg","76","image-keyboard-response","312","612132","0.0-3.0-1.154","","","Set_2_Only","l","true"
"null","<div style=""font-size:60px;"">+</div>","null","html-keyboard-response","313","612640","0.0-3.0-0.155","","fixation","","",""
"2737","a_b montage/ab_186.jpg","66","image-keyboard-response","314","615380","0.0-3.0-1.155","","","Set_2_Only","l","false"
"null","<div style=""font-size:60px;"">+</div>","null","html-keyboard-response","315","615905","0.0-3.0-0.156","","fixation","","",""
"1898","b_a montage/ba_157.jpg","76","image-keyboard-response","316","617807","0.0-3.0-1.156","","","Update","b","false"
"null","<div style=""font-size:60px;"">+</div>","null","html-keyboard-response","317","618313","0.0-3.0-0.157","","fixation","","",""
"1739","a_b montage/ab_072.jpg","76","image-keyboard-response","318","620056","0.0-3.0-1.157","","","Repeat","l","true"
"null","<div style=""font-size:60px;"">+</div>","null","html-keyboard-response","319","620561","0.0-3.0-0.158","","fixation","","",""
"2680","b_a montage/ba_173.jpg","76","image-keyboard-response","320","623244","0.0-3.0-1.158","","","Set_2_Only","r","false"
"null","<div style=""font-size:60px;"">+</div>","null","html-keyboard-response","321","623749","0.0-3.0-0.159","","fixation","","",""
"2670","a_b montage/ab_187.jpg","76","image-keyboard-response","322","626425","0.0-3.0-1.159","","","Set_2_Only","l","true"
"null","<div style=""font-size:60px;"">+</div>","null","html-keyboard-response","323","626937","0.0-3.0-0.160","","fixation","","",""
"2448","b_a montage/ba_016.jpg","82","image-keyboard-response","324","629388","0.0-3.0-1.160","","","Set_1_Only","r","true"
"null","<div style=""font-size:60px;"">+</div>","null","html-keyboard-response","325","629893","0.0-3.0-0.161","","fixation","","",""
"1914","a_b montage/ab_095.jpg","76","image-keyboard-response","326","631810","0.0-3.0-1.161","","","Repeat","l","true"
"null","<div style=""font-size:60px;"">+</div>","null","html-keyboard-response","327","632316","0.0-3.0-0.162","","fixation","","",""
"2922","a_b montage/ab_178.jpg","76","image-keyboard-response","328","635242","0.0-3.0-1.162","","","Set_2_Only","l","true"
"null","<div style=""font-size:60px;"">+</div>","null","html-keyboard-response","329","635750","0.0-3.0-0.163","","fixation","","",""
"2705","b_a new/ba_014.jpg","78","image-keyboard-response","330","638459","0.0-3.0-1.163","","","Neither","n","true"
"null","<div style=""font-size:60px;"">+</div>","null","html-keyboard-response","331","638970","0.0-3.0-0.164","","fixation","","",""
"2499","b_a montage/ba_126.jpg","82","image-keyboard-response","332","641473","0.0-3.0-1.164","","","Update","b","false"
"null","<div style=""font-size:60px;"">+</div>","null","html-keyboard-response","333","642000","0.0-3.0-0.165","","fixation","","",""
"2515","b_a montage/ba_134.jpg","76","image-keyboard-response","334","644520","0.0-3.0-1.165","","","Update","b","false"
"null","<div style=""font-size:60px;"">+</div>","null","html-keyboard-response","335","645032","0.0-3.0-0.166","","fixation","","",""
"2787","b_a montage/ba_162.jpg","82","image-keyboard-response","336","647824","0.0-3.0-1.166","","","Set_2_Only","r","true"
"null","<div style=""font-size:60px;"">+</div>","null","html-keyboard-response","337","648330","0.0-3.0-0.167","","fixation","","",""
"4638","b_a montage/ba_003.jpg","82","image-keyboard-response","338","652970","0.0-3.0-1.167","","","Set_1_Only","r","true"
"null","<div style=""font-size:60px;"">+</div>","null","html-keyboard-response","339","653487","0.0-3.0-0.168","","fixation","","",""
"2703","b_a montage/ba_007.jpg","78","image-keyboard-response","340","656193","0.0-3.0-1.168","","","Set_1_Only","r","false"
"null","<div style=""font-size:60px;"">+</div>","null","html-keyboard-response","341","656705","0.0-3.0-0.169","","fixation","","",""
"2990","b_a montage/ba_063.jpg","82","image-keyboard-response","342","659698","0.0-3.0-1.169","","","Repeat","r","true"
"null","<div style=""font-size:60px;"">+</div>","null","html-keyboard-response","343","660206","0.0-3.0-0.170","","fixation","","",""
"2793","b_a montage/ba_132.jpg","76","image-keyboard-response","344","663002","0.0-3.0-1.170","","","Update","b","false"
"null","<div style=""font-size:60px;"">+</div>","null","html-keyboard-response","345","663518","0.0-3.0-0.171","","fixation","","",""
"2601","a_b montage/ab_096.jpg","76","image-keyboard-response","346","666123","0.0-3.0-1.171","","","Repeat","l","true"
"null","<div style=""font-size:60px;"">+</div>","null","html-keyboard-response","347","666629","0.0-3.0-0.172","","fixation","","",""
"3462","b_a montage/ba_014.jpg","66","image-keyboard-response","348","670095","0.0-3.0-1.172","","","Set_1_Only","r","false"
"null","<div style=""font-size:60px;"">+</div>","null","html-keyboard-response","349","670608","0.0-3.0-0.173","","fixation","","",""
"1921","b_a montage/ba_105.jpg","66","image-keyboard-response","350","672531","0.0-3.0-1.173","","","Update","b","true"
"null","<div style=""font-size:60px;"">+</div>","null","html-keyboard-response","351","673035","0.0-3.0-0.174","","fixation","","",""
"3058","b_a montage/ba_054.jpg","82","image-keyboard-response","352","676097","0.0-3.0-1.174","","","Repeat","r","true"
"null","<div style=""font-size:60px;"">+</div>","null","html-keyboard-response","353","676598","0.0-3.0-0.175","","fixation","","",""
"3032","b_a montage/ba_042.jpg","66","image-keyboard-response","354","679633","0.0-3.0-1.175","","","Repeat","r","false"
"null","<div style=""font-size:60px;"">+</div>","null","html-keyboard-response","355","680148","0.0-3.0-0.176","","fixation","","",""
"3438","a_b montage/ab_074.jpg","76","image-keyboard-response","356","683589","0.0-3.0-1.176","","","Repeat","l","true"
"null","<div style=""font-size:60px;"">+</div>","null","html-keyboard-response","357","684098","0.0-3.0-0.177","","fixation","","",""
"2037","a_b montage/ab_083.jpg","82","image-keyboard-response","358","686137","0.0-3.0-1.177","","","Repeat","l","false"
"null","<div style=""font-size:60px;"">+</div>","null","html-keyboard-response","359","686645","0.0-3.0-0.178","","fixation","","",""
"2883","b_a montage/ba_144.jpg","66","image-keyboard-response","360","689531","0.0-3.0-1.178","","","Update","b","true"
"null","<div style=""font-size:60px;"">+</div>","null","html-keyboard-response","361","690037","0.0-3.0-0.179","","fixation","","",""
"3128","a_b montage/ab_078.jpg","82","image-keyboard-response","362","693167","0.0-3.0-1.179","","","Repeat","l","false"
"null","<div style=""font-size:60px;"">+</div>","null","html-keyboard-response","363","693678","0.0-3.0-0.180","","fixation","","",""
"2685","a_b montage/ab_184.jpg","76","image-keyboard-response","364","696367","0.0-3.0-1.180","","","Set_2_Only","l","true"
"null","<div style=""font-size:60px;"">+</div>","null","html-keyboard-response","365","696882","0.0-3.0-0.181","","fixation","","",""
"1972","b_a montage/ba_121.jpg","76","image-keyboard-response","366","698856","0.0-3.0-1.181","","","Update","b","false"
"null","<div style=""font-size:60px;"">+</div>","null","html-keyboard-response","367","699366","0.0-3.0-0.182","","fixation","","",""
"3063","b_a montage/ba_001.jpg","66","image-keyboard-response","368","702434","0.0-3.0-1.182","","","Set_1_Only","r","false"
"null","<div style=""font-size:60px;"">+</div>","null","html-keyboard-response","369","702953","0.0-3.0-0.183","","fixation","","",""
"4046","b_a montage/ba_106.jpg","82","image-keyboard-response","370","707002","0.0-3.0-1.183","","","Update","b","false"
"null","<div style=""font-size:60px;"">+</div>","null","html-keyboard-response","371","707508","0.0-3.0-0.184","","fixation","","",""
"1657","b_a montage/ba_122.jpg","76","image-keyboard-response","372","709167","0.0-3.0-1.184","","","Update","b","false"
"null","<div style=""font-size:60px;"">+</div>","null","html-keyboard-response","373","709680","0.0-3.0-0.185","","fixation","","",""
"2587","b_a montage/ba_064.jpg","76","image-keyboard-response","374","712269","0.0-3.0-1.185","","","Repeat","r","false"
"null","<div style=""font-size:60px;"">+</div>","null","html-keyboard-response","375","712773","0.0-3.0-0.186","","fixation","","",""
"2118","b_a montage/ba_059.jpg","76","image-keyboard-response","376","714895","0.0-3.0-1.186","","","Repeat","r","false"
"null","<div style=""font-size:60px;"">+</div>","null","html-keyboard-response","377","715399","0.0-3.0-0.187","","fixation","","",""
"2204","b_a montage/ba_175.jpg","82","image-keyboard-response","378","717605","0.0-3.0-1.187","","","Set_2_Only","r","true"
"null","<div style=""font-size:60px;"">+</div>","null","html-keyboard-response","379","718118","0.0-3.0-0.188","","fixation","","",""
"2946","b_a montage/ba_169.jpg","82","image-keyboard-response","380","721067","0.0-3.0-1.188","","","Set_2_Only","r","true"
"null","<div style=""font-size:60px;"">+</div>","null","html-keyboard-response","381","721571","0.0-3.0-0.189","","fixation","","",""
"2715","b_a montage/ba_151.jpg","76","image-keyboard-response","382","724292","0.0-3.0-1.189","","","Update","b","false"
"null","<div style=""font-size:60px;"">+</div>","null","html-keyboard-response","383","724805","0.0-3.0-0.190","","fixation","","",""
"2761","b_a montage/ba_010.jpg","82","image-keyboard-response","384","727568","0.0-3.0-1.190","","","Set_1_Only","r","true"
"null","<div style=""font-size:60px;"">+</div>","null","html-keyboard-response","385","728072","0.0-3.0-0.191","","fixation","","",""
"4311","b_a montage/ba_164.jpg","82","image-keyboard-response","386","732385","0.0-3.0-1.191","","","Set_2_Only","r","true"
"null","<div style=""font-size:60px;"">+</div>","null","html-keyboard-response","387","732900","0.0-3.0-0.192","","fixation","","",""
"null","a_b montage/ab_070.jpg","null","image-keyboard-response","388","742917","0.0-3.0-1.192","","","Repeat","l","false"
"null","<div style=""font-size:60px;"">+</div>","null","html-keyboard-response","389","743432","0.0-3.0-0.193","","fixation","","",""
"5121","b_a montage/ba_044.jpg","82","image-keyboard-response","390","748559","0.0-3.0-1.193","","","Repeat","r","true"
"null","<div style=""font-size:60px;"">+</div>","null","html-keyboard-response","391","749077","0.0-3.0-0.194","","fixation","","",""
"1894","b_a montage/ba_035.jpg","66","image-keyboard-response","392","750977","0.0-3.0-1.194","","","Repeat","r","false"
"null","<div style=""font-size:60px;"">+</div>","null","html-keyboard-response","393","751490","0.0-3.0-0.195","","fixation","","",""
"1719","b_a montage/ba_040.jpg","66","image-keyboard-response","394","753213","0.0-3.0-1.195","","","Repeat","r","false"
"null","<div style=""font-size:60px;"">+</div>","null","html-keyboard-response","395","753735","0.0-3.0-0.196","","fixation","","",""
"2577","b_a montage/ba_124.jpg","82","image-keyboard-response","396","756315","0.0-3.0-1.196","","","Update","b","false"
"null","<div style=""font-size:60px;"">+</div>","null","html-keyboard-response","397","756829","0.0-3.0-0.197","","fixation","","",""
"2849","a_b montage/ab_025.jpg","76","image-keyboard-response","398","759682","0.0-3.0-1.197","","","Set_1_Only","l","true"
"null","<div style=""font-size:60px;"">+</div>","null","html-keyboard-response","399","760188","0.0-3.0-0.198","","fixation","","",""
"3144","b_a montage/ba_165.jpg","82","image-keyboard-response","400","763337","0.0-3.0-1.198","","","Set_2_Only","r","true"
"null","<div style=""font-size:60px;"">+</div>","null","html-keyboard-response","401","763861","0.0-3.0-0.199","","fixation","","",""
"3130","b_a montage/ba_138.jpg","82","image-keyboard-response","402","766995","0.0-3.0-1.199","","","Update","b","false"
"null","<div style=""font-size:60px;"">+</div>","null","html-keyboard-response","403","767501","0.0-3.0-0.200","","fixation","","",""
"2028","a_b montage/ab_028.jpg","82","image-keyboard-response","404","769534","0.0-3.0-1.200","","","Set_1_Only","l","false"
"null","<div style=""font-size:60px;"">+</div>","null","html-keyboard-response","405","770049","0.0-3.0-0.201","","fixation","","",""
"2290","a_b montage/ab_076.jpg","76","image-keyboard-response","406","772343","0.0-3.0-1.201","","","Repeat","l","true"
"null","<div style=""font-size:60px;"">+</div>","null","html-keyboard-response","407","772861","0.0-3.0-0.202","","fixation","","",""
"2758","b_a new/ba_012.jpg","78","image-keyboard-response","408","775624","0.0-3.0-1.202","","","Neither","n","true"
"null","<div style=""font-size:60px;"">+</div>","null","html-keyboard-response","409","776127","0.0-3.0-0.203","","fixation","","",""
"2726","a_b montage/ab_068.jpg","76","image-keyboard-response","410","778858","0.0-3.0-1.203","","","Repeat","l","true"
"null","<div style=""font-size:60px;"">+</div>","null","html-keyboard-response","411","779378","0.0-3.0-0.204","","fixation","","",""
"1985","b_a montage/ba_115.jpg","66","image-keyboard-response","412","781366","0.0-3.0-1.204","","","Update","b","true"
"null","<div style=""font-size:60px;"">+</div>","null","html-keyboard-response","413","781877","0.0-3.0-0.205","","fixation","","",""
"3046","b_a montage/ba_118.jpg","66","image-keyboard-response","414","784926","0.0-3.0-1.205","","","Update","b","true"
"null","<div style=""font-size:60px;"">+</div>","null","html-keyboard-response","415","785441","0.0-3.0-0.206","","fixation","","",""
"3840","a_b montage/ab_189.jpg","76","image-keyboard-response","416","789285","0.0-3.0-1.206","","","Set_2_Only","l","true"
"null","<div style=""font-size:60px;"">+</div>","null","html-keyboard-response","417","789800","0.0-3.0-0.207","","fixation","","",""
"2220","b_a new/ba_009.jpg","78","image-keyboard-response","418","792025","0.0-3.0-1.207","","","Neither","n","true"
