"rt","stimulus","key_press","trial_type","trial_index","time_elapsed","internal_node_id","responses","test_part","stim_type","correct_response","correct"
"2236","Press any key to begin.","90","html-keyboard-response","0","2239","0.0-0.0","","","","",""
"7970","","","survey-text","1","10212","0.0-1.0","{""Q0"":""Test201200"",""Q1"":""""}","","","",""
"13111","<p>For this phase you will see two similar images side by side on the screen I want you to tell us which of the items you have seen before in any of the previous sets of images. </p><p>If you have only seen the image on the left you will press the 'L' key on your keyboard.</p>If you have only seen the image on the right you will press the 'R' key on your keyboard.</p>If you have previously seen both of the images you will press the 'B' key on your keyboard.</p>If you have not seen either image you will press the 'N' key on your keyboard.</p><div style='width: 700px;'></div><p>Press any key to begin.</p>","90","html-keyboard-response","2","23324","0.0-2.0","","","","",""
"null","<div style=""font-size:60px;"">+</div>","null","html-keyboard-response","3","25828","0.0-3.0-0.0","","fixation","","",""
"5160","b_a montage/ba_038.jpg","76","image-keyboard-response","4","30991","0.0-3.0-1.0","","","Repeat","r","false"
"null","<div style=""font-size:60px;"">+</div>","null","html-keyboard-response","5","31493","0.0-3.0-0.1","","fixation","","",""
"3028","a_b new/ab_008.jpg","78","image-keyboard-response","6","34522","0.0-3.0-1.1","","","Neither","n","true"
"null","<div style=""font-size:60px;"">+</div>","null","html-keyboard-response","7","35024","0.0-3.0-0.2","","fixation","","",""
"3307","a_b montage/ab_109.jpg","66","image-keyboard-response","8","38332","0.0-3.0-1.2","","","Update","b","true"
"null","<div style=""font-size:60px;"">+</div>","null","html-keyboard-response","9","38834","0.0-3.0-0.3","","fixation","","",""
"2672","a_b montage/ab_088.jpg","66","image-keyboard-response","10","41507","0.0-3.0-1.3","","","Repeat","l","false"
"null","<div style=""font-size:60px;"">+</div>","null","html-keyboard-response","11","42009","0.0-3.0-0.4","","fixation","","",""
"3117","a_b montage/ab_067.jpg","82","image-keyboard-response","12","45127","0.0-3.0-1.4","","","Repeat","l","false"
"null","<div style=""font-size:60px;"">+</div>","null","html-keyboard-response","13","45629","0.0-3.0-0.5","","fixation","","",""
"4916","b_a montage/ba_174.jpg","82","image-keyboard-response","14","50546","0.0-3.0-1.5","","","Set_2_Only","r","true"
"null","<div style=""font-size:60px;"">+</div>","null","html-keyboard-response","15","51048","0.0-3.0-0.6","","fixation","","",""
"3047","a_b montage/ab_103.jpg","66","image-keyboard-response","16","54097","0.0-3.0-1.6","","","Update","b","true"
"null","<div style=""font-size:60px;"">+</div>","null","html-keyboard-response","17","54599","0.0-3.0-0.7","","fixation","","",""
"3419","a_b montage/ab_129.jpg","82","image-keyboard-response","18","58020","0.0-3.0-1.7","","","Update","b","false"
"null","<div style=""font-size:60px;"">+</div>","null","html-keyboard-response","19","58522","0.0-3.0-0.8","","fixation","","",""
"3517","a_b montage/ab_130.jpg","66","image-keyboard-response","20","62040","0.0-3.0-1.8","","","Update","b","true"
"null","<div style=""font-size:60px;"">+</div>","null","html-keyboard-response","21","62542","0.0-3.0-0.9","","fixation","","",""
"2737","a_b montage/ab_181.jpg","76","image-keyboard-response","22","65280","0.0-3.0-1.9","","","Set_2_Only","l","true"
"null","<div style=""font-size:60px;"">+</div>","null","html-keyboard-response","23","65782","0.0-3.0-0.10","","fixation","","",""
"2327","a_b montage/ab_179.jpg","76","image-keyboard-response","24","68111","0.0-3.0-1.10","","","Set_2_Only","l","true"
"null","<div style=""font-size:60px;"">+</div>","null","html-keyboard-response","25","68613","0.0-3.0-0.11","","fixation","","",""
"5745","a_b new/ab_016.jpg","78","image-keyboard-response","26","74360","0.0-3.0-1.11","","","Neither","n","true"
"null","<div style=""font-size:60px;"">+</div>","null","html-keyboard-response","27","74861","0.0-3.0-0.12","","fixation","","",""
"2802","a_b montage/ab_153.jpg","66","image-keyboard-response","28","77665","0.0-3.0-1.12","","","Update","b","true"
"null","<div style=""font-size:60px;"">+</div>","null","html-keyboard-response","29","78167","0.0-3.0-0.13","","fixation","","",""
"4509","b_a montage/ba_009.jpg","78","image-keyboard-response","30","82677","0.0-3.0-1.13","","","Set_1_Only","r","false"
"null","<div style=""font-size:60px;"">+</div>","null","html-keyboard-response","31","83179","0.0-3.0-0.14","","fixation","","",""
"2722","a_b montage/ab_141.jpg","66","image-keyboard-response","32","85903","0.0-3.0-1.14","","","Update","b","true"
"null","<div style=""font-size:60px;"">+</div>","null","html-keyboard-response","33","86405","0.0-3.0-0.15","","fixation","","",""
"2580","a_b montage/ab_079.jpg","76","image-keyboard-response","34","88987","0.0-3.0-1.15","","","Repeat","l","true"
"null","<div style=""font-size:60px;"">+</div>","null","html-keyboard-response","35","89488","0.0-3.0-0.16","","fixation","","",""
"2865","b_a montage/ba_176.jpg","66","image-keyboard-response","36","92354","0.0-3.0-1.16","","","Set_2_Only","r","false"
"null","<div style=""font-size:60px;"">+</div>","null","html-keyboard-response","37","92856","0.0-3.0-0.17","","fixation","","",""
"2702","a_b montage/ab_017.jpg","78","image-keyboard-response","38","95560","0.0-3.0-1.17","","","Set_1_Only","l","false"
"null","<div style=""font-size:60px;"">+</div>","null","html-keyboard-response","39","96062","0.0-3.0-0.18","","fixation","","",""
"3213","a_b montage/ab_069.jpg","82","image-keyboard-response","40","99276","0.0-3.0-1.18","","","Repeat","l","false"
"null","<div style=""font-size:60px;"">+</div>","null","html-keyboard-response","41","99778","0.0-3.0-0.19","","fixation","","",""
"2856","a_b montage/ab_100.jpg","76","image-keyboard-response","42","102635","0.0-3.0-1.19","","","Update","b","false"
"null","<div style=""font-size:60px;"">+</div>","null","html-keyboard-response","43","103137","0.0-3.0-0.20","","fixation","","",""
"2067","a_b new/ab_001.jpg","78","image-keyboard-response","44","105205","0.0-3.0-1.20","","","Neither","n","true"
"null","<div style=""font-size:60px;"">+</div>","null","html-keyboard-response","45","105706","0.0-3.0-0.21","","fixation","","",""
"2896","b_a montage/ba_013.jpg","82","image-keyboard-response","46","108603","0.0-3.0-1.21","","","Set_1_Only","r","true"
"null","<div style=""font-size:60px;"">+</div>","null","html-keyboard-response","47","109105","0.0-3.0-0.22","","fixation","","",""
"2207","a_b montage/ab_066.jpg","76","image-keyboard-response","48","111313","0.0-3.0-1.22","","","Repeat","l","true"
"null","<div style=""font-size:60px;"">+</div>","null","html-keyboard-response","49","111815","0.0-3.0-0.23","","fixation","","",""
"2200","b_a montage/ba_041.jpg","82","image-keyboard-response","50","114016","0.0-3.0-1.23","","","Repeat","r","true"
"null","<div style=""font-size:60px;"">+</div>","null","html-keyboard-response","51","114518","0.0-3.0-0.24","","fixation","","",""
"2418","b_a montage/ba_043.jpg","66","image-keyboard-response","52","116937","0.0-3.0-1.24","","","Repeat","r","false"
"null","<div style=""font-size:60px;"">+</div>","null","html-keyboard-response","53","117439","0.0-3.0-0.25","","fixation","","",""
"2537","a_b montage/ab_080.jpg","76","image-keyboard-response","54","119977","0.0-3.0-1.25","","","Repeat","l","true"
"null","<div style=""font-size:60px;"">+</div>","null","html-keyboard-response","55","120479","0.0-3.0-0.26","","fixation","","",""
"3289","a_b montage/ab_131.jpg","66","image-keyboard-response","56","123769","0.0-3.0-1.26","","","Update","b","true"
"null","<div style=""font-size:60px;"">+</div>","null","html-keyboard-response","57","124270","0.0-3.0-0.27","","fixation","","",""
"2467","a_b montage/ab_147.jpg","66","image-keyboard-response","58","126738","0.0-3.0-1.27","","","Update","b","true"
"null","<div style=""font-size:60px;"">+</div>","null","html-keyboard-response","59","127239","0.0-3.0-0.28","","fixation","","",""
"2190","b_a montage/ba_047.jpg","82","image-keyboard-response","60","129430","0.0-3.0-1.28","","","Repeat","r","true"
"null","<div style=""font-size:60px;"">+</div>","null","html-keyboard-response","61","129932","0.0-3.0-0.29","","fixation","","",""
"1985","b_a montage/ba_168.jpg","82","image-keyboard-response","62","131918","0.0-3.0-1.29","","","Set_2_Only","r","true"
"null","<div style=""font-size:60px;"">+</div>","null","html-keyboard-response","63","132420","0.0-3.0-0.30","","fixation","","",""
"2648","a_b montage/ab_104.jpg","82","image-keyboard-response","64","135069","0.0-3.0-1.30","","","Update","b","false"
"null","<div style=""font-size:60px;"">+</div>","null","html-keyboard-response","65","135571","0.0-3.0-0.31","","fixation","","",""
"2584","a_b montage/ab_159.jpg","82","image-keyboard-response","66","138156","0.0-3.0-1.31","","","Update","b","false"
"null","<div style=""font-size:60px;"">+</div>","null","html-keyboard-response","67","138658","0.0-3.0-0.32","","fixation","","",""
"3172","a_b montage/ab_091.jpg","66","image-keyboard-response","68","141830","0.0-3.0-1.32","","","Repeat","l","false"
"null","<div style=""font-size:60px;"">+</div>","null","html-keyboard-response","69","142333","0.0-3.0-0.33","","fixation","","",""
"2453","a_b montage/ab_185.jpg","76","image-keyboard-response","70","144787","0.0-3.0-1.33","","","Set_2_Only","l","true"
"null","<div style=""font-size:60px;"">+</div>","null","html-keyboard-response","71","145289","0.0-3.0-0.34","","fixation","","",""
"2483","a_b montage/ab_107.jpg","82","image-keyboard-response","72","147773","0.0-3.0-1.34","","","Update","b","false"
"null","<div style=""font-size:60px;"">+</div>","null","html-keyboard-response","73","148275","0.0-3.0-0.35","","fixation","","",""
"2041","b_a montage/ba_163.jpg","82","image-keyboard-response","74","150317","0.0-3.0-1.35","","","Set_2_Only","r","true"
"null","<div style=""font-size:60px;"">+</div>","null","html-keyboard-response","75","150819","0.0-3.0-0.36","","fixation","","",""
"2000","a_b new/ab_011.jpg","78","image-keyboard-response","76","152820","0.0-3.0-1.36","","","Neither","n","true"
"null","<div style=""font-size:60px;"">+</div>","null","html-keyboard-response","77","153322","0.0-3.0-0.37","","fixation","","",""
"2536","a_b montage/ab_182.jpg","76","image-keyboard-response","78","155859","0.0-3.0-1.37","","","Set_2_Only","l","true"
"null","<div style=""font-size:60px;"">+</div>","null","html-keyboard-response","79","156361","0.0-3.0-0.38","","fixation","","",""
"2842","a_b montage/ab_188.jpg","76","image-keyboard-response","80","159204","0.0-3.0-1.38","","","Set_2_Only","l","true"
"null","<div style=""font-size:60px;"">+</div>","null","html-keyboard-response","81","159705","0.0-3.0-0.39","","fixation","","",""
"2112","a_b montage/ab_099.jpg","76","image-keyboard-response","82","161818","0.0-3.0-1.39","","","Update","b","false"
"null","<div style=""font-size:60px;"">+</div>","null","html-keyboard-response","83","162320","0.0-3.0-0.40","","fixation","","",""
"2512","a_b montage/ab_127.jpg","82","image-keyboard-response","84","164833","0.0-3.0-1.40","","","Update","b","false"
"null","<div style=""font-size:60px;"">+</div>","null","html-keyboard-response","85","165334","0.0-3.0-0.41","","fixation","","",""
"2393","b_a montage/ba_050.jpg","82","image-keyboard-response","86","167728","0.0-3.0-1.41","","","Repeat","r","true"
"null","<div style=""font-size:60px;"">+</div>","null","html-keyboard-response","87","168230","0.0-3.0-0.42","","fixation","","",""
"2624","a_b montage/ab_142.jpg","66","image-keyboard-response","88","170855","0.0-3.0-1.42","","","Update","b","true"
"null","<div style=""font-size:60px;"">+</div>","null","html-keyboard-response","89","171356","0.0-3.0-0.43","","fixation","","",""
"2631","b_a montage/ba_056.jpg","76","image-keyboard-response","90","173988","0.0-3.0-1.43","","","Repeat","r","false"
"null","<div style=""font-size:60px;"">+</div>","null","html-keyboard-response","91","174490","0.0-3.0-0.44","","fixation","","",""
"2012","a_b montage/ab_150.jpg","66","image-keyboard-response","92","176503","0.0-3.0-1.44","","","Update","b","true"
"null","<div style=""font-size:60px;"">+</div>","null","html-keyboard-response","93","177004","0.0-3.0-0.45","","fixation","","",""
"2527","a_b montage/ab_020.jpg","76","image-keyboard-response","94","179532","0.0-3.0-1.45","","","Set_1_Only","l","true"
"null","<div style=""font-size:60px;"">+</div>","null","html-keyboard-response","95","180034","0.0-3.0-0.46","","fixation","","",""
"2221","a_b montage/ab_139.jpg","66","image-keyboard-response","96","182256","0.0-3.0-1.46","","","Update","b","true"
"null","<div style=""font-size:60px;"">+</div>","null","html-keyboard-response","97","182757","0.0-3.0-0.47","","fixation","","",""
"2325","a_b montage/ab_149.jpg","82","image-keyboard-response","98","185083","0.0-3.0-1.47","","","Update","b","false"
"null","<div style=""font-size:60px;"">+</div>","null","html-keyboard-response","99","185585","0.0-3.0-0.48","","fixation","","",""
"2631","a_b new/ab_003.jpg","78","image-keyboard-response","100","188217","0.0-3.0-1.48","","","Neither","n","true"
"null","<div style=""font-size:60px;"">+</div>","null","html-keyboard-response","101","188719","0.0-3.0-0.49","","fixation","","",""
"2073","a_b montage/ab_098.jpg","82","image-keyboard-response","102","190793","0.0-3.0-1.49","","","Update","b","false"
"null","<div style=""font-size:60px;"">+</div>","null","html-keyboard-response","103","191295","0.0-3.0-0.50","","fixation","","",""
"2469","a_b montage/ab_084.jpg","76","image-keyboard-response","104","193766","0.0-3.0-1.50","","","Repeat","l","true"
"null","<div style=""font-size:60px;"">+</div>","null","html-keyboard-response","105","194268","0.0-3.0-0.51","","fixation","","",""
"1926","a_b montage/ab_177.jpg","66","image-keyboard-response","106","196194","0.0-3.0-1.51","","","Set_2_Only","l","false"
"null","<div style=""font-size:60px;"">+</div>","null","html-keyboard-response","107","196696","0.0-3.0-0.52","","fixation","","",""
"2437","a_b montage/ab_111.jpg","76","image-keyboard-response","108","199135","0.0-3.0-1.52","","","Update","b","false"
"null","<div style=""font-size:60px;"">+</div>","null","html-keyboard-response","109","199637","0.0-3.0-0.53","","fixation","","",""
"1741","a_b montage/ab_090.jpg","76","image-keyboard-response","110","201380","0.0-3.0-1.53","","","Repeat","l","true"
"null","<div style=""font-size:60px;"">+</div>","null","html-keyboard-response","111","201881","0.0-3.0-0.54","","fixation","","",""
"2337","b_a montage/ba_012.jpg","66","image-keyboard-response","112","204219","0.0-3.0-1.54","","","Set_1_Only","r","false"
"null","<div style=""font-size:60px;"">+</div>","null","html-keyboard-response","113","204721","0.0-3.0-0.55","","fixation","","",""
"2797","b_a montage/ba_039.jpg","82","image-keyboard-response","114","207519","0.0-3.0-1.55","","","Repeat","r","true"
"null","<div style=""font-size:60px;"">+</div>","null","html-keyboard-response","115","208021","0.0-3.0-0.56","","fixation","","",""
"2658","a_b montage/ab_125.jpg","76","image-keyboard-response","116","210680","0.0-3.0-1.56","","","Update","b","false"
"null","<div style=""font-size:60px;"">+</div>","null","html-keyboard-response","117","211182","0.0-3.0-0.57","","fixation","","",""
"2384","b_a montage/ba_172.jpg","78","image-keyboard-response","118","213568","0.0-3.0-1.57","","","Set_2_Only","r","false"
"null","<div style=""font-size:60px;"">+</div>","null","html-keyboard-response","119","214070","0.0-3.0-0.58","","fixation","","",""
"1969","b_a montage/ba_046.jpg","66","image-keyboard-response","120","216040","0.0-3.0-1.58","","","Repeat","r","false"
"null","<div style=""font-size:60px;"">+</div>","null","html-keyboard-response","121","216542","0.0-3.0-0.59","","fixation","","",""
"1445","b_a montage/ba_004.jpg","66","image-keyboard-response","122","217988","0.0-3.0-1.59","","","Set_1_Only","r","false"
"null","<div style=""font-size:60px;"">+</div>","null","html-keyboard-response","123","218490","0.0-3.0-0.60","","fixation","","",""
"2372","b_a montage/ba_062.jpg","82","image-keyboard-response","124","220863","0.0-3.0-1.60","","","Repeat","r","true"
"null","<div style=""font-size:60px;"">+</div>","null","html-keyboard-response","125","221365","0.0-3.0-0.61","","fixation","","",""
"2094","b_a montage/ba_166.jpg","76","image-keyboard-response","126","223461","0.0-3.0-1.61","","","Set_2_Only","r","false"
"null","<div style=""font-size:60px;"">+</div>","null","html-keyboard-response","127","223963","0.0-3.0-0.62","","fixation","","",""
"1944","a_b montage/ab_148.jpg","82","image-keyboard-response","128","225907","0.0-3.0-1.62","","","Update","b","false"
"null","<div style=""font-size:60px;"">+</div>","null","html-keyboard-response","129","226409","0.0-3.0-0.63","","fixation","","",""
"1734","a_b montage/ab_108.jpg","82","image-keyboard-response","130","228144","0.0-3.0-1.63","","","Update","b","false"
"null","<div style=""font-size:60px;"">+</div>","null","html-keyboard-response","131","228646","0.0-3.0-0.64","","fixation","","",""
"1768","a_b new/ab_010.jpg","78","image-keyboard-response","132","230414","0.0-3.0-1.64","","","Neither","n","true"
"null","<div style=""font-size:60px;"">+</div>","null","html-keyboard-response","133","230916","0.0-3.0-0.65","","fixation","","",""
"2243","b_a montage/ba_011.jpg","82","image-keyboard-response","134","233160","0.0-3.0-1.65","","","Set_1_Only","r","true"
"null","<div style=""font-size:60px;"">+</div>","null","html-keyboard-response","135","233662","0.0-3.0-0.66","","fixation","","",""
"2498","a_b montage/ab_180.jpg","78","image-keyboard-response","136","236162","0.0-3.0-1.66","","","Set_2_Only","l","false"
"null","<div style=""font-size:60px;"">+</div>","null","html-keyboard-response","137","236664","0.0-3.0-0.67","","fixation","","",""
"2435","b_a montage/ba_015.jpg","76","image-keyboard-response","138","239100","0.0-3.0-1.67","","","Set_1_Only","r","false"
"null","<div style=""font-size:60px;"">+</div>","null","html-keyboard-response","139","239601","0.0-3.0-0.68","","fixation","","",""
"2882","b_a montage/ba_058.jpg","82","image-keyboard-response","140","242485","0.0-3.0-1.68","","","Repeat","r","true"
"null","<div style=""font-size:60px;"">+</div>","null","html-keyboard-response","141","242986","0.0-3.0-0.69","","fixation","","",""
"2116","a_b montage/ab_154.jpg","66","image-keyboard-response","142","245103","0.0-3.0-1.69","","","Update","b","true"
"null","<div style=""font-size:60px;"">+</div>","null","html-keyboard-response","143","245605","0.0-3.0-0.70","","fixation","","",""
"2576","a_b montage/ab_112.jpg","82","image-keyboard-response","144","248182","0.0-3.0-1.70","","","Update","b","false"
"null","<div style=""font-size:60px;"">+</div>","null","html-keyboard-response","145","248684","0.0-3.0-0.71","","fixation","","",""
"2063","a_b montage/ab_183.jpg","76","image-keyboard-response","146","250748","0.0-3.0-1.71","","","Set_2_Only","l","true"
"null","<div style=""font-size:60px;"">+</div>","null","html-keyboard-response","147","251250","0.0-3.0-0.72","","fixation","","",""
"2149","a_b montage/ab_192.jpg","76","image-keyboard-response","148","253400","0.0-3.0-1.72","","","Set_2_Only","l","true"
"null","<div style=""font-size:60px;"">+</div>","null","html-keyboard-response","149","253902","0.0-3.0-0.73","","fixation","","",""
"2646","a_b montage/ab_113.jpg","76","image-keyboard-response","150","256549","0.0-3.0-1.73","","","Update","b","false"
"null","<div style=""font-size:60px;"">+</div>","null","html-keyboard-response","151","257051","0.0-3.0-0.74","","fixation","","",""
"2043","b_a montage/ba_037.jpg","82","image-keyboard-response","152","259095","0.0-3.0-1.74","","","Repeat","r","true"
"null","<div style=""font-size:60px;"">+</div>","null","html-keyboard-response","153","259597","0.0-3.0-0.75","","fixation","","",""
"6054","a_b montage/ab_019.jpg","76","image-keyboard-response","154","265651","0.0-3.0-1.75","","","Set_1_Only","l","true"
"null","<div style=""font-size:60px;"">+</div>","null","html-keyboard-response","155","266153","0.0-3.0-0.76","","fixation","","",""
"2314","a_b montage/ab_018.jpg","76","image-keyboard-response","156","268469","0.0-3.0-1.76","","","Set_1_Only","l","true"
"null","<div style=""font-size:60px;"">+</div>","null","html-keyboard-response","157","268970","0.0-3.0-0.77","","fixation","","",""
"2780","a_b montage/ab_085.jpg","76","image-keyboard-response","158","271752","0.0-3.0-1.77","","","Repeat","l","true"
"null","<div style=""font-size:60px;"">+</div>","null","html-keyboard-response","159","272253","0.0-3.0-0.78","","fixation","","",""
"3100","b_a montage/ba_034.jpg","66","image-keyboard-response","160","275354","0.0-3.0-1.78","","","Repeat","r","false"
"null","<div style=""font-size:60px;"">+</div>","null","html-keyboard-response","161","275856","0.0-3.0-0.79","","fixation","","",""
"2250","a_b montage/ab_117.jpg","82","image-keyboard-response","162","278107","0.0-3.0-1.79","","","Update","b","false"
"null","<div style=""font-size:60px;"">+</div>","null","html-keyboard-response","163","278609","0.0-3.0-0.80","","fixation","","",""
"2065","a_b montage/ab_082.jpg","76","image-keyboard-response","164","280675","0.0-3.0-1.80","","","Repeat","l","true"
"null","<div style=""font-size:60px;"">+</div>","null","html-keyboard-response","165","281177","0.0-3.0-0.81","","fixation","","",""
"2578","a_b montage/ab_092.jpg","82","image-keyboard-response","166","283756","0.0-3.0-1.81","","","Repeat","l","false"
"null","<div style=""font-size:60px;"">+</div>","null","html-keyboard-response","167","284257","0.0-3.0-0.82","","fixation","","",""
"3444","b_a montage/ba_060.jpg","82","image-keyboard-response","168","287702","0.0-3.0-1.82","","","Repeat","r","true"
"null","<div style=""font-size:60px;"">+</div>","null","html-keyboard-response","169","288203","0.0-3.0-0.83","","fixation","","",""
"2079","b_a montage/ba_061.jpg","66","image-keyboard-response","170","290283","0.0-3.0-1.83","","","Repeat","r","false"
"null","<div style=""font-size:60px;"">+</div>","null","html-keyboard-response","171","290785","0.0-3.0-0.84","","fixation","","",""
"2203","a_b montage/ab_158.jpg","66","image-keyboard-response","172","292989","0.0-3.0-1.84","","","Update","b","true"
"null","<div style=""font-size:60px;"">+</div>","null","html-keyboard-response","173","293491","0.0-3.0-0.85","","fixation","","",""
"1557","a_b montage/ab_075.jpg","66","image-keyboard-response","174","295049","0.0-3.0-1.85","","","Repeat","l","false"
"null","<div style=""font-size:60px;"">+</div>","null","html-keyboard-response","175","295550","0.0-3.0-0.86","","fixation","","",""
"2026","a_b montage/ab_086.jpg","66","image-keyboard-response","176","297577","0.0-3.0-1.86","","","Repeat","l","false"
"null","<div style=""font-size:60px;"">+</div>","null","html-keyboard-response","177","298079","0.0-3.0-0.87","","fixation","","",""
"2321","a_b montage/ab_190.jpg","76","image-keyboard-response","178","300400","0.0-3.0-1.87","","","Set_2_Only","l","true"
"null","<div style=""font-size:60px;"">+</div>","null","html-keyboard-response","179","300901","0.0-3.0-0.88","","fixation","","",""
"1951","b_a montage/ba_055.jpg","82","image-keyboard-response","180","302853","0.0-3.0-1.88","","","Repeat","r","true"
"null","<div style=""font-size:60px;"">+</div>","null","html-keyboard-response","181","303355","0.0-3.0-0.89","","fixation","","",""
"2507","a_b montage/ab_135.jpg","82","image-keyboard-response","182","305863","0.0-3.0-1.89","","","Update","b","false"
"null","<div style=""font-size:60px;"">+</div>","null","html-keyboard-response","183","306364","0.0-3.0-0.90","","fixation","","",""
"1848","a_b montage/ab_137.jpg","66","image-keyboard-response","184","308213","0.0-3.0-1.90","","","Update","b","true"
"null","<div style=""font-size:60px;"">+</div>","null","html-keyboard-response","185","308714","0.0-3.0-0.91","","fixation","","",""
"2531","b_a montage/ba_006.jpg","66","image-keyboard-response","186","311247","0.0-3.0-1.91","","","Set_1_Only","r","false"
"null","<div style=""font-size:60px;"">+</div>","null","html-keyboard-response","187","311748","0.0-3.0-0.92","","fixation","","",""
"2141","b_a montage/ba_170.jpg","82","image-keyboard-response","188","313890","0.0-3.0-1.92","","","Set_2_Only","r","true"
"null","<div style=""font-size:60px;"">+</div>","null","html-keyboard-response","189","314392","0.0-3.0-0.93","","fixation","","",""
"2510","b_a montage/ba_051.jpg","82","image-keyboard-response","190","316903","0.0-3.0-1.93","","","Repeat","r","true"
"null","<div style=""font-size:60px;"">+</div>","null","html-keyboard-response","191","317405","0.0-3.0-0.94","","fixation","","",""
"2299","a_b montage/ab_128.jpg","66","image-keyboard-response","192","319704","0.0-3.0-1.94","","","Update","b","true"
"null","<div style=""font-size:60px;"">+</div>","null","html-keyboard-response","193","320206","0.0-3.0-0.95","","fixation","","",""
"2444","a_b montage/ab_145.jpg","82","image-keyboard-response","194","322651","0.0-3.0-1.95","","","Update","b","false"
"null","<div style=""font-size:60px;"">+</div>","null","html-keyboard-response","195","323153","0.0-3.0-0.96","","fixation","","",""
"2491","a_b montage/ab_031.jpg","82","image-keyboard-response","196","325645","0.0-3.0-1.96","","","Set_1_Only","l","false"
"null","<div style=""font-size:60px;"">+</div>","null","html-keyboard-response","197","326147","0.0-3.0-0.97","","fixation","","",""
"1993","a_b montage/ab_071.jpg","76","image-keyboard-response","198","328140","0.0-3.0-1.97","","","Repeat","l","true"
"null","<div style=""font-size:60px;"">+</div>","null","html-keyboard-response","199","328642","0.0-3.0-0.98","","fixation","","",""
"2135","b_a montage/ba_120.jpg","66","image-keyboard-response","200","330778","0.0-3.0-1.98","","","Update","b","true"
"null","<div style=""font-size:60px;"">+</div>","null","html-keyboard-response","201","331280","0.0-3.0-0.99","","fixation","","",""
"2088","b_a montage/ba_143.jpg","66","image-keyboard-response","202","333369","0.0-3.0-1.99","","","Update","b","true"
"null","<div style=""font-size:60px;"">+</div>","null","html-keyboard-response","203","333871","0.0-3.0-0.100","","fixation","","",""
"2198","b_a montage/ba_146.jpg","76","image-keyboard-response","204","336069","0.0-3.0-1.100","","","Update","b","false"
"null","<div style=""font-size:60px;"">+</div>","null","html-keyboard-response","205","336571","0.0-3.0-0.101","","fixation","","",""
"2105","a_b new/ab_015.jpg","78","image-keyboard-response","206","338677","0.0-3.0-1.101","","","Neither","n","true"
"null","<div style=""font-size:60px;"">+</div>","null","html-keyboard-response","207","339179","0.0-3.0-0.102","","fixation","","",""
"2246","b_a montage/ba_097.jpg","82","image-keyboard-response","208","341426","0.0-3.0-1.102","","","Update","b","false"
"null","<div style=""font-size:60px;"">+</div>","null","html-keyboard-response","209","341928","0.0-3.0-0.103","","fixation","","",""
"2449","b_a montage/ba_036.jpg","66","image-keyboard-response","210","344378","0.0-3.0-1.103","","","Repeat","r","false"
"null","<div style=""font-size:60px;"">+</div>","null","html-keyboard-response","211","344879","0.0-3.0-0.104","","fixation","","",""
"2763","b_a montage/ba_136.jpg","82","image-keyboard-response","212","347644","0.0-3.0-1.104","","","Update","b","false"
"null","<div style=""font-size:60px;"">+</div>","null","html-keyboard-response","213","348146","0.0-3.0-0.105","","fixation","","",""
"2243","a_b montage/ab_073.jpg","66","image-keyboard-response","214","350391","0.0-3.0-1.105","","","Repeat","l","false"
"null","<div style=""font-size:60px;"">+</div>","null","html-keyboard-response","215","350893","0.0-3.0-0.106","","fixation","","",""
"1457","b_a montage/ba_133.jpg","66","image-keyboard-response","216","352352","0.0-3.0-1.106","","","Update","b","true"
"null","<div style=""font-size:60px;"">+</div>","null","html-keyboard-response","217","352854","0.0-3.0-0.107","","fixation","","",""
"2144","b_a montage/ba_045.jpg","82","image-keyboard-response","218","354999","0.0-3.0-1.107","","","Repeat","r","true"
"null","<div style=""font-size:60px;"">+</div>","null","html-keyboard-response","219","355501","0.0-3.0-0.108","","fixation","","",""
"3644","a_b montage/ab_081.jpg","82","image-keyboard-response","220","359146","0.0-3.0-1.108","","","Repeat","l","false"
"null","<div style=""font-size:60px;"">+</div>","null","html-keyboard-response","221","359648","0.0-3.0-0.109","","fixation","","",""
"2550","a_b montage/ab_089.jpg","66","image-keyboard-response","222","362199","0.0-3.0-1.109","","","Repeat","l","false"
"null","<div style=""font-size:60px;"">+</div>","null","html-keyboard-response","223","362701","0.0-3.0-0.110","","fixation","","",""
"1814","a_b new/ab_005.jpg","78","image-keyboard-response","224","364516","0.0-3.0-1.110","","","Neither","n","true"
"null","<div style=""font-size:60px;"">+</div>","null","html-keyboard-response","225","365018","0.0-3.0-0.111","","fixation","","",""
"2958","b_a montage/ba_053.jpg","82","image-keyboard-response","226","367977","0.0-3.0-1.111","","","Repeat","r","true"
"null","<div style=""font-size:60px;"">+</div>","null","html-keyboard-response","227","368478","0.0-3.0-0.112","","fixation","","",""
"2388","b_a montage/ba_119.jpg","66","image-keyboard-response","228","370867","0.0-3.0-1.112","","","Update","b","true"
"null","<div style=""font-size:60px;"">+</div>","null","html-keyboard-response","229","371369","0.0-3.0-0.113","","fixation","","",""
"2261","b_a montage/ba_171.jpg","82","image-keyboard-response","230","373630","0.0-3.0-1.113","","","Set_2_Only","r","true"
"null","<div style=""font-size:60px;"">+</div>","null","html-keyboard-response","231","374132","0.0-3.0-0.114","","fixation","","",""
"2731","b_a montage/ba_110.jpg","76","image-keyboard-response","232","376864","0.0-3.0-1.114","","","Update","b","false"
"null","<div style=""font-size:60px;"">+</div>","null","html-keyboard-response","233","377366","0.0-3.0-0.115","","fixation","","",""
"2717","b_a montage/ba_116.jpg","76","image-keyboard-response","234","380085","0.0-3.0-1.115","","","Update","b","false"
"null","<div style=""font-size:60px;"">+</div>","null","html-keyboard-response","235","380587","0.0-3.0-0.116","","fixation","","",""
"2548","a_b montage/ab_024.jpg","66","image-keyboard-response","236","383136","0.0-3.0-1.116","","","Set_1_Only","l","false"
"null","<div style=""font-size:60px;"">+</div>","null","html-keyboard-response","237","383637","0.0-3.0-0.117","","fixation","","",""
"2843","a_b montage/ab_026.jpg","76","image-keyboard-response","238","386481","0.0-3.0-1.117","","","Set_1_Only","l","true"
"null","<div style=""font-size:60px;"">+</div>","null","html-keyboard-response","239","386983","0.0-3.0-0.118","","fixation","","",""
"2170","b_a montage/ba_052.jpg","82","image-keyboard-response","240","389155","0.0-3.0-1.118","","","Repeat","r","true"
"null","<div style=""font-size:60px;"">+</div>","null","html-keyboard-response","241","389656","0.0-3.0-0.119","","fixation","","",""
"2421","a_b montage/ab_094.jpg","76","image-keyboard-response","242","392078","0.0-3.0-1.119","","","Repeat","l","true"
"null","<div style=""font-size:60px;"">+</div>","null","html-keyboard-response","243","392580","0.0-3.0-0.120","","fixation","","",""
"2803","b_a montage/ba_101.jpg","66","image-keyboard-response","244","395385","0.0-3.0-1.120","","","Update","b","true"
"null","<div style=""font-size:60px;"">+</div>","null","html-keyboard-response","245","395887","0.0-3.0-0.121","","fixation","","",""
"5082","b_a montage/ba_152.jpg","76","image-keyboard-response","246","400970","0.0-3.0-1.121","","","Update","b","false"
"null","<div style=""font-size:60px;"">+</div>","null","html-keyboard-response","247","401472","0.0-3.0-0.122","","fixation","","",""
"2415","a_b montage/ab_093.jpg","66","image-keyboard-response","248","403888","0.0-3.0-1.122","","","Repeat","l","false"
"null","<div style=""font-size:60px;"">+</div>","null","html-keyboard-response","249","404390","0.0-3.0-0.123","","fixation","","",""
"4079","a_b new/ab_007.jpg","78","image-keyboard-response","250","408470","0.0-3.0-1.123","","","Neither","n","true"
"null","<div style=""font-size:60px;"">+</div>","null","html-keyboard-response","251","408972","0.0-3.0-0.124","","fixation","","",""
"2376","b_a montage/ba_102.jpg","66","image-keyboard-response","252","411349","0.0-3.0-1.124","","","Update","b","true"
"null","<div style=""font-size:60px;"">+</div>","null","html-keyboard-response","253","411850","0.0-3.0-0.125","","fixation","","",""
"2017","a_b montage/ab_021.jpg","76","image-keyboard-response","254","413868","0.0-3.0-1.125","","","Set_1_Only","l","true"
"null","<div style=""font-size:60px;"">+</div>","null","html-keyboard-response","255","414370","0.0-3.0-0.126","","fixation","","",""
"1990","a_b montage/ab_065.jpg","66","image-keyboard-response","256","416362","0.0-3.0-1.126","","","Repeat","l","false"
"null","<div style=""font-size:60px;"">+</div>","null","html-keyboard-response","257","416864","0.0-3.0-0.127","","fixation","","",""
"3431","a_b new/ab_002.jpg","78","image-keyboard-response","258","420297","0.0-3.0-1.127","","","Neither","n","true"
"null","<div style=""font-size:60px;"">+</div>","null","html-keyboard-response","259","420798","0.0-3.0-0.128","","fixation","","",""
"2349","b_a montage/ba_057.jpg","82","image-keyboard-response","260","423150","0.0-3.0-1.128","","","Repeat","r","true"
"null","<div style=""font-size:60px;"">+</div>","null","html-keyboard-response","261","423652","0.0-3.0-0.129","","fixation","","",""
"2597","b_a montage/ba_167.jpg","82","image-keyboard-response","262","426250","0.0-3.0-1.129","","","Set_2_Only","r","true"
"null","<div style=""font-size:60px;"">+</div>","null","html-keyboard-response","263","426752","0.0-3.0-0.130","","fixation","","",""
"3126","b_a montage/ba_160.jpg","82","image-keyboard-response","264","429878","0.0-3.0-1.130","","","Update","b","false"
"null","<div style=""font-size:60px;"">+</div>","null","html-keyboard-response","265","430380","0.0-3.0-0.131","","fixation","","",""
"3170","b_a montage/ba_005.jpg","82","image-keyboard-response","266","433552","0.0-3.0-1.131","","","Set_1_Only","r","true"
"null","<div style=""font-size:60px;"">+</div>","null","html-keyboard-response","267","434054","0.0-3.0-0.132","","fixation","","",""
"2210","b_a montage/ba_140.jpg","66","image-keyboard-response","268","436265","0.0-3.0-1.132","","","Update","b","true"
"null","<div style=""font-size:60px;"">+</div>","null","html-keyboard-response","269","436767","0.0-3.0-0.133","","fixation","","",""
"2508","b_a new/ba_006.jpg","78","image-keyboard-response","270","439276","0.0-3.0-1.133","","","Neither","n","true"
"null","<div style=""font-size:60px;"">+</div>","null","html-keyboard-response","271","439777","0.0-3.0-0.134","","fixation","","",""
"2351","b_a montage/ba_123.jpg","66","image-keyboard-response","272","442129","0.0-3.0-1.134","","","Update","b","true"
"null","<div style=""font-size:60px;"">+</div>","null","html-keyboard-response","273","442631","0.0-3.0-0.135","","fixation","","",""
"2807","b_a montage/ba_033.jpg","82","image-keyboard-response","274","445439","0.0-3.0-1.135","","","Repeat","r","true"
"null","<div style=""font-size:60px;"">+</div>","null","html-keyboard-response","275","445941","0.0-3.0-0.136","","fixation","","",""
"1654","a_b montage/ab_077.jpg","82","image-keyboard-response","276","447597","0.0-3.0-1.136","","","Repeat","l","false"
"null","<div style=""font-size:60px;"">+</div>","null","html-keyboard-response","277","448098","0.0-3.0-0.137","","fixation","","",""
"2233","a_b montage/ab_032.jpg","76","image-keyboard-response","278","450333","0.0-3.0-1.137","","","Set_1_Only","l","true"
"null","<div style=""font-size:60px;"">+</div>","null","html-keyboard-response","279","450834","0.0-3.0-0.138","","fixation","","",""
"1702","b_a montage/ba_156.jpg","82","image-keyboard-response","280","452538","0.0-3.0-1.138","","","Update","b","false"
"null","<div style=""font-size:60px;"">+</div>","null","html-keyboard-response","281","453040","0.0-3.0-0.139","","fixation","","",""
"1901","a_b montage/ab_022.jpg","78","image-keyboard-response","282","454941","0.0-3.0-1.139","","","Set_1_Only","l","false"
"null","<div style=""font-size:60px;"">+</div>","null","html-keyboard-response","283","455443","0.0-3.0-0.140","","fixation","","",""
"1601","b_a montage/ba_114.jpg","66","image-keyboard-response","284","457045","0.0-3.0-1.140","","","Update","b","true"
"null","<div style=""font-size:60px;"">+</div>","null","html-keyboard-response","285","457547","0.0-3.0-0.141","","fixation","","",""
"2583","b_a new/ba_013.jpg","66","image-keyboard-response","286","460132","0.0-3.0-1.141","","","Neither","n","false"
"null","<div style=""font-size:60px;"">+</div>","null","html-keyboard-response","287","460633","0.0-3.0-0.142","","fixation","","",""
"2852","a_b montage/ab_023.jpg","76","image-keyboard-response","288","463486","0.0-3.0-1.142","","","Set_1_Only","l","true"
"null","<div style=""font-size:60px;"">+</div>","null","html-keyboard-response","289","463988","0.0-3.0-0.143","","fixation","","",""
"1690","a_b montage/ab_087.jpg","82","image-keyboard-response","290","465679","0.0-3.0-1.143","","","Repeat","l","false"
"null","<div style=""font-size:60px;"">+</div>","null","html-keyboard-response","291","466180","0.0-3.0-0.144","","fixation","","",""
"2782","b_a montage/ba_155.jpg","82","image-keyboard-response","292","468963","0.0-3.0-1.144","","","Update","b","false"
"null","<div style=""font-size:60px;"">+</div>","null","html-keyboard-response","293","469465","0.0-3.0-0.145","","fixation","","",""
"2023","b_a montage/ba_002.jpg","82","image-keyboard-response","294","471489","0.0-3.0-1.145","","","Set_1_Only","r","true"
"null","<div style=""font-size:60px;"">+</div>","null","html-keyboard-response","295","471991","0.0-3.0-0.146","","fixation","","",""
"1805","b_a montage/ba_161.jpg","66","image-keyboard-response","296","473797","0.0-3.0-1.146","","","Set_2_Only","r","false"
"null","<div style=""font-size:60px;"">+</div>","null","html-keyboard-response","297","474298","0.0-3.0-0.147","","fixation","","",""
"2272","a_b montage/ab_029.jpg","82","image-keyboard-response","298","476571","0.0-3.0-1.147","","","Set_1_Only","l","false"
"null","<div style=""font-size:60px;"">+</div>","null","html-keyboard-response","299","477073","0.0-3.0-0.148","","fixation","","",""
"2472","a_b montage/ab_030.jpg","82","image-keyboard-response","300","479546","0.0-3.0-1.148","","","Set_1_Only","l","false"
"null","<div style=""font-size:60px;"">+</div>","null","html-keyboard-response","301","480048","0.0-3.0-0.149","","fixation","","",""
"1780","b_a new/ba_004.jpg","78","image-keyboard-response","302","481829","0.0-3.0-1.149","","","Neither","n","true"
"null","<div style=""font-size:60px;"">+</div>","null","html-keyboard-response","303","482331","0.0-3.0-0.150","","fixation","","",""
"2163","b_a montage/ba_049.jpg","76","image-keyboard-response","304","484494","0.0-3.0-1.150","","","Repeat","r","false"
"null","<div style=""font-size:60px;"">+</div>","null","html-keyboard-response","305","484995","0.0-3.0-0.151","","fixation","","",""
"2028","a_b montage/ab_027.jpg","78","image-keyboard-response","306","487025","0.0-3.0-1.151","","","Set_1_Only","l","false"
"null","<div style=""font-size:60px;"">+</div>","null","html-keyboard-response","307","487527","0.0-3.0-0.152","","fixation","","",""
"2207","b_a montage/ba_008.jpg","76","image-keyboard-response","308","489735","0.0-3.0-1.152","","","Set_1_Only","r","false"
"null","<div style=""font-size:60px;"">+</div>","null","html-keyboard-response","309","490237","0.0-3.0-0.153","","fixation","","",""
"1730","b_a montage/ba_048.jpg","82","image-keyboard-response","310","491969","0.0-3.0-1.153","","","Repeat","r","true"
"null","<div style=""font-size:60px;"">+</div>","null","html-keyboard-response","311","492470","0.0-3.0-0.154","","fixation","","",""
"2263","a_b montage/ab_191.jpg","78","image-keyboard-response","312","494735","0.0-3.0-1.154","","","Set_2_Only","l","false"
"null","<div style=""font-size:60px;"">+</div>","null","html-keyboard-response","313","495236","0.0-3.0-0.155","","fixation","","",""
"2618","a_b montage/ab_186.jpg","76","image-keyboard-response","314","497855","0.0-3.0-1.155","","","Set_2_Only","l","true"
"null","<div style=""font-size:60px;"">+</div>","null","html-keyboard-response","315","498357","0.0-3.0-0.156","","fixation","","",""
"2359","b_a montage/ba_157.jpg","76","image-keyboard-response","316","500718","0.0-3.0-1.156","","","Update","b","false"
"null","<div style=""font-size:60px;"">+</div>","null","html-keyboard-response","317","501219","0.0-3.0-0.157","","fixation","","",""
"2056","a_b montage/ab_072.jpg","66","image-keyboard-response","318","503277","0.0-3.0-1.157","","","Repeat","l","false"
"null","<div style=""font-size:60px;"">+</div>","null","html-keyboard-response","319","503779","0.0-3.0-0.158","","fixation","","",""
"2508","b_a montage/ba_173.jpg","78","image-keyboard-response","320","506288","0.0-3.0-1.158","","","Set_2_Only","r","false"
"null","<div style=""font-size:60px;"">+</div>","null","html-keyboard-response","321","506789","0.0-3.0-0.159","","fixation","","",""
"2450","a_b montage/ab_187.jpg","78","image-keyboard-response","322","509240","0.0-3.0-1.159","","","Set_2_Only","l","false"
"null","<div style=""font-size:60px;"">+</div>","null","html-keyboard-response","323","509742","0.0-3.0-0.160","","fixation","","",""
"1843","b_a montage/ba_016.jpg","78","image-keyboard-response","324","511586","0.0-3.0-1.160","","","Set_1_Only","r","false"
"null","<div style=""font-size:60px;"">+</div>","null","html-keyboard-response","325","512088","0.0-3.0-0.161","","fixation","","",""
"2084","a_b montage/ab_095.jpg","82","image-keyboard-response","326","514173","0.0-3.0-1.161","","","Repeat","l","false"
"null","<div style=""font-size:60px;"">+</div>","null","html-keyboard-response","327","514674","0.0-3.0-0.162","","fixation","","",""
"2669","a_b montage/ab_178.jpg","76","image-keyboard-response","328","517344","0.0-3.0-1.162","","","Set_2_Only","l","true"
"null","<div style=""font-size:60px;"">+</div>","null","html-keyboard-response","329","517846","0.0-3.0-0.163","","fixation","","",""
"2051","b_a new/ba_014.jpg","76","image-keyboard-response","330","519898","0.0-3.0-1.163","","","Neither","n","false"
"null","<div style=""font-size:60px;"">+</div>","null","html-keyboard-response","331","520400","0.0-3.0-0.164","","fixation","","",""
"2635","b_a montage/ba_126.jpg","76","image-keyboard-response","332","523036","0.0-3.0-1.164","","","Update","b","false"
"null","<div style=""font-size:60px;"">+</div>","null","html-keyboard-response","333","523538","0.0-3.0-0.165","","fixation","","",""
"2449","b_a montage/ba_134.jpg","66","image-keyboard-response","334","525987","0.0-3.0-1.165","","","Update","b","true"
"null","<div style=""font-size:60px;"">+</div>","null","html-keyboard-response","335","526489","0.0-3.0-0.166","","fixation","","",""
"2291","b_a montage/ba_162.jpg","82","image-keyboard-response","336","528781","0.0-3.0-1.166","","","Set_2_Only","r","true"
"null","<div style=""font-size:60px;"">+</div>","null","html-keyboard-response","337","529282","0.0-3.0-0.167","","fixation","","",""
"2114","b_a montage/ba_003.jpg","78","image-keyboard-response","338","531397","0.0-3.0-1.167","","","Set_1_Only","r","false"
"null","<div style=""font-size:60px;"">+</div>","null","html-keyboard-response","339","531899","0.0-3.0-0.168","","fixation","","",""
"2011","b_a montage/ba_007.jpg","82","image-keyboard-response","340","533912","0.0-3.0-1.168","","","Set_1_Only","r","true"
"null","<div style=""font-size:60px;"">+</div>","null","html-keyboard-response","341","534413","0.0-3.0-0.169","","fixation","","",""
"2334","b_a montage/ba_063.jpg","76","image-keyboard-response","342","536748","0.0-3.0-1.169","","","Repeat","r","false"
"null","<div style=""font-size:60px;"">+</div>","null","html-keyboard-response","343","537250","0.0-3.0-0.170","","fixation","","",""
"2125","b_a montage/ba_132.jpg","76","image-keyboard-response","344","539375","0.0-3.0-1.170","","","Update","b","false"
"null","<div style=""font-size:60px;"">+</div>","null","html-keyboard-response","345","539877","0.0-3.0-0.171","","fixation","","",""
"2587","a_b montage/ab_096.jpg","76","image-keyboard-response","346","542465","0.0-3.0-1.171","","","Repeat","l","true"
"null","<div style=""font-size:60px;"">+</div>","null","html-keyboard-response","347","542967","0.0-3.0-0.172","","fixation","","",""
"1911","b_a montage/ba_014.jpg","82","image-keyboard-response","348","544879","0.0-3.0-1.172","","","Set_1_Only","r","true"
"null","<div style=""font-size:60px;"">+</div>","null","html-keyboard-response","349","545381","0.0-3.0-0.173","","fixation","","",""
"2031","b_a montage/ba_105.jpg","76","image-keyboard-response","350","547414","0.0-3.0-1.173","","","Update","b","false"
"null","<div style=""font-size:60px;"">+</div>","null","html-keyboard-response","351","547915","0.0-3.0-0.174","","fixation","","",""
"2220","b_a montage/ba_054.jpg","82","image-keyboard-response","352","550136","0.0-3.0-1.174","","","Repeat","r","true"
"null","<div style=""font-size:60px;"">+</div>","null","html-keyboard-response","353","550638","0.0-3.0-0.175","","fixation","","",""
"2560","b_a montage/ba_042.jpg","82","image-keyboard-response","354","553199","0.0-3.0-1.175","","","Repeat","r","true"
"null","<div style=""font-size:60px;"">+</div>","null","html-keyboard-response","355","553701","0.0-3.0-0.176","","fixation","","",""
"1502","a_b montage/ab_074.jpg","76","image-keyboard-response","356","555204","0.0-3.0-1.176","","","Repeat","l","true"
"null","<div style=""font-size:60px;"">+</div>","null","html-keyboard-response","357","555706","0.0-3.0-0.177","","fixation","","",""
"2366","a_b montage/ab_083.jpg","66","image-keyboard-response","358","558073","0.0-3.0-1.177","","","Repeat","l","false"
"null","<div style=""font-size:60px;"">+</div>","null","html-keyboard-response","359","558575","0.0-3.0-0.178","","fixation","","",""
"2728","b_a montage/ba_144.jpg","76","image-keyboard-response","360","561304","0.0-3.0-1.178","","","Update","b","false"
"null","<div style=""font-size:60px;"">+</div>","null","html-keyboard-response","361","561806","0.0-3.0-0.179","","fixation","","",""
"1674","a_b montage/ab_078.jpg","76","image-keyboard-response","362","563481","0.0-3.0-1.179","","","Repeat","l","true"
"null","<div style=""font-size:60px;"">+</div>","null","html-keyboard-response","363","563983","0.0-3.0-0.180","","fixation","","",""
"1948","a_b montage/ab_184.jpg","76","image-keyboard-response","364","565932","0.0-3.0-1.180","","","Set_2_Only","l","true"
"null","<div style=""font-size:60px;"">+</div>","null","html-keyboard-response","365","566434","0.0-3.0-0.181","","fixation","","",""
"1826","b_a montage/ba_121.jpg","76","image-keyboard-response","366","568261","0.0-3.0-1.181","","","Update","b","false"
"null","<div style=""font-size:60px;"">+</div>","null","html-keyboard-response","367","568763","0.0-3.0-0.182","","fixation","","",""
"2997","b_a montage/ba_001.jpg","82","image-keyboard-response","368","571761","0.0-3.0-1.182","","","Set_1_Only","r","true"
"null","<div style=""font-size:60px;"">+</div>","null","html-keyboard-response","369","572263","0.0-3.0-0.183","","fixation","","",""
"1629","b_a montage/ba_106.jpg","76","image-keyboard-response","370","573894","0.0-3.0-1.183","","","Update","b","false"
"null","<div style=""font-size:60px;"">+</div>","null","html-keyboard-response","371","574395","0.0-3.0-0.184","","fixation","","",""
"1737","b_a montage/ba_122.jpg","82","image-keyboard-response","372","576133","0.0-3.0-1.184","","","Update","b","false"
"null","<div style=""font-size:60px;"">+</div>","null","html-keyboard-response","373","576635","0.0-3.0-0.185","","fixation","","",""
"2567","b_a montage/ba_064.jpg","82","image-keyboard-response","374","579203","0.0-3.0-1.185","","","Repeat","r","true"
"null","<div style=""font-size:60px;"">+</div>","null","html-keyboard-response","375","579705","0.0-3.0-0.186","","fixation","","",""
"1975","b_a montage/ba_059.jpg","82","image-keyboard-response","376","581681","0.0-3.0-1.186","","","Repeat","r","true"
"null","<div style=""font-size:60px;"">+</div>","null","html-keyboard-response","377","582183","0.0-3.0-0.187","","fixation","","",""
"2728","b_a montage/ba_175.jpg","82","image-keyboard-response","378","584912","0.0-3.0-1.187","","","Set_2_Only","r","true"
"null","<div style=""font-size:60px;"">+</div>","null","html-keyboard-response","379","585414","0.0-3.0-0.188","","fixation","","",""
"1839","b_a montage/ba_169.jpg","82","image-keyboard-response","380","587254","0.0-3.0-1.188","","","Set_2_Only","r","true"
"null","<div style=""font-size:60px;"">+</div>","null","html-keyboard-response","381","587756","0.0-3.0-0.189","","fixation","","",""
"2732","b_a montage/ba_151.jpg","76","image-keyboard-response","382","590489","0.0-3.0-1.189","","","Update","b","false"
"null","<div style=""font-size:60px;"">+</div>","null","html-keyboard-response","383","590991","0.0-3.0-0.190","","fixation","","",""
"1836","b_a montage/ba_010.jpg","82","image-keyboard-response","384","592827","0.0-3.0-1.190","","","Set_1_Only","r","true"
"null","<div style=""font-size:60px;"">+</div>","null","html-keyboard-response","385","593329","0.0-3.0-0.191","","fixation","","",""
"2025","b_a montage/ba_164.jpg","76","image-keyboard-response","386","595355","0.0-3.0-1.191","","","Set_2_Only","r","false"
"null","<div style=""font-size:60px;"">+</div>","null","html-keyboard-response","387","595857","0.0-3.0-0.192","","fixation","","",""
"2748","a_b montage/ab_070.jpg","82","image-keyboard-response","388","598606","0.0-3.0-1.192","","","Repeat","l","false"
"null","<div style=""font-size:60px;"">+</div>","null","html-keyboard-response","389","599108","0.0-3.0-0.193","","fixation","","",""
"2465","b_a montage/ba_044.jpg","82","image-keyboard-response","390","601574","0.0-3.0-1.193","","","Repeat","r","true"
"null","<div style=""font-size:60px;"">+</div>","null","html-keyboard-response","391","602076","0.0-3.0-0.194","","fixation","","",""
"1950","b_a montage/ba_035.jpg","82","image-keyboard-response","392","604028","0.0-3.0-1.194","","","Repeat","r","true"
"null","<div style=""font-size:60px;"">+</div>","null","html-keyboard-response","393","604529","0.0-3.0-0.195","","fixation","","",""
"1302","b_a montage/ba_040.jpg","82","image-keyboard-response","394","605832","0.0-3.0-1.195","","","Repeat","r","true"
"null","<div style=""font-size:60px;"">+</div>","null","html-keyboard-response","395","606334","0.0-3.0-0.196","","fixation","","",""
"1851","b_a montage/ba_124.jpg","76","image-keyboard-response","396","608187","0.0-3.0-1.196","","","Update","b","false"
"null","<div style=""font-size:60px;"">+</div>","null","html-keyboard-response","397","608688","0.0-3.0-0.197","","fixation","","",""
"3395","a_b montage/ab_025.jpg","76","image-keyboard-response","398","612084","0.0-3.0-1.197","","","Set_1_Only","l","true"
"null","<div style=""font-size:60px;"">+</div>","null","html-keyboard-response","399","612586","0.0-3.0-0.198","","fixation","","",""
"2747","b_a montage/ba_165.jpg","76","image-keyboard-response","400","615334","0.0-3.0-1.198","","","Set_2_Only","r","false"
"null","<div style=""font-size:60px;"">+</div>","null","html-keyboard-response","401","615836","0.0-3.0-0.199","","fixation","","",""
"2312","b_a montage/ba_138.jpg","78","image-keyboard-response","402","618149","0.0-3.0-1.199","","","Update","b","false"
"null","<div style=""font-size:60px;"">+</div>","null","html-keyboard-response","403","618650","0.0-3.0-0.200","","fixation","","",""
"2195","a_b montage/ab_028.jpg","76","image-keyboard-response","404","620846","0.0-3.0-1.200","","","Set_1_Only","l","true"
"null","<div style=""font-size:60px;"">+</div>","null","html-keyboard-response","405","621347","0.0-3.0-0.201","","fixation","","",""
"2019","a_b montage/ab_076.jpg","76","image-keyboard-response","406","623367","0.0-3.0-1.201","","","Repeat","l","true"
"null","<div style=""font-size:60px;"">+</div>","null","html-keyboard-response","407","623869","0.0-3.0-0.202","","fixation","","",""
"2289","b_a new/ba_012.jpg","78","image-keyboard-response","408","626158","0.0-3.0-1.202","","","Neither","n","true"
"null","<div style=""font-size:60px;"">+</div>","null","html-keyboard-response","409","626660","0.0-3.0-0.203","","fixation","","",""
"2448","a_b montage/ab_068.jpg","82","image-keyboard-response","410","629108","0.0-3.0-1.203","","","Repeat","l","false"
"null","<div style=""font-size:60px;"">+</div>","null","html-keyboard-response","411","629610","0.0-3.0-0.204","","fixation","","",""
"2684","b_a montage/ba_115.jpg","66","image-keyboard-response","412","632296","0.0-3.0-1.204","","","Update","b","true"
"null","<div style=""font-size:60px;"">+</div>","null","html-keyboard-response","413","632797","0.0-3.0-0.205","","fixation","","",""
"2224","b_a montage/ba_118.jpg","78","image-keyboard-response","414","635022","0.0-3.0-1.205","","","Update","b","false"
"null","<div style=""font-size:60px;"">+</div>","null","html-keyboard-response","415","635524","0.0-3.0-0.206","","fixation","","",""
"2233","a_b montage/ab_189.jpg","76","image-keyboard-response","416","637759","0.0-3.0-1.206","","","Set_2_Only","l","true"
"null","<div style=""font-size:60px;"">+</div>","null","html-keyboard-response","417","638260","0.0-3.0-0.207","","fixation","","",""
"2267","b_a new/ba_009.jpg","78","image-keyboard-response","418","640529","0.0-3.0-1.207","","","Neither","n","true"
