"rt","stimulus","key_press","trial_type","trial_index","time_elapsed","internal_node_id","responses","test_part","stim_type","correct_response","correct"
"3435","Press any key to begin.","74","html-keyboard-response","0","3443","0.0-0.0","","","","",""
"9000","","","survey-text","1","12453","0.0-1.0","{""Q0"":""\""Set2128617\"""",""Q1"":""""}","","","",""
"11656","<p>In this experiment you will see a series of everyday objects presented one at a time at the center of the screen. Each image will be presented twice.</p><p>The first time you see the image, press the N key to indicat that it is a NEW image. The second time you see the image, press the O key to indicate that it is an OLD image.</p><p>Some of the images will be repeats from the first session of this task you did yesterday. I want you to treat those images as 'OLD' if you remember seeing them before. Some of the images will be very similar but not identical to an image that you have seen in the previous set. I want you to treat those images as 'NEW' the first time you see them and 'OLD' the second time.</p><div style='width: 700px;'></div><p>Press any key to begin.</p>","78","html-keyboard-response","2","24129","0.0-2.0","","","","",""
"null","<div style=""font-size:60px;"">+</div>","null","html-keyboard-response","3","26650","0.0-3.0-0.0","","fixation","","",""
"3354","Set1/037a.jpg","78","image-keyboard-response","4","30013","0.0-3.0-1.0","","","Repeat","n","true"
"null","<div style=""font-size:60px;"">+</div>","null","html-keyboard-response","5","30527","0.0-3.0-0.1","","fixation","","",""
"1914","Set1/095a.jpg","79","image-keyboard-response","6","32452","0.0-3.0-1.1","","","Repeat","n","false"
"null","<div style=""font-size:60px;"">+</div>","null","html-keyboard-response","7","32981","0.0-3.0-0.2","","fixation","","",""
"1476","Set1/080a.jpg","79","image-keyboard-response","8","34465","0.0-3.0-1.2","","","Repeat","n","false"
"null","<div style=""font-size:60px;"">+</div>","null","html-keyboard-response","9","34981","0.0-3.0-0.3","","fixation","","",""
"null","Set1/142b.jpg","null","image-keyboard-response","10","44999","0.0-3.0-1.3","","","Update","n","false"
"null","<div style=""font-size:60px;"">+</div>","null","html-keyboard-response","11","45514","0.0-3.0-0.4","","fixation","","",""
"1953","Set1/179a.jpg","78","image-keyboard-response","12","47477","0.0-3.0-1.4","","","Set_2_Only","n","true"
"null","<div style=""font-size:60px;"">+</div>","null","html-keyboard-response","13","47984","0.0-3.0-0.5","","fixation","","",""
"1424","Set1/039a.jpg","79","image-keyboard-response","14","49416","0.0-3.0-1.5","","","Repeat","n","false"
"null","<div style=""font-size:60px;"">+</div>","null","html-keyboard-response","15","49921","0.0-3.0-0.6","","fixation","","",""
"1668","Set1/172a.jpg","79","image-keyboard-response","16","51597","0.0-3.0-1.6","","","Set_2_Only","n","false"
"null","<div style=""font-size:60px;"">+</div>","null","html-keyboard-response","17","52125","0.0-3.0-0.7","","fixation","","",""
"1535","Set1/075a.jpg","79","image-keyboard-response","18","53667","0.0-3.0-1.7","","","Repeat","n","false"
"null","<div style=""font-size:60px;"">+</div>","null","html-keyboard-response","19","54173","0.0-3.0-0.8","","fixation","","",""
"1761","Set1/090a.jpg","79","image-keyboard-response","20","55941","0.0-3.0-1.8","","","Repeat","n","false"
"null","<div style=""font-size:60px;"">+</div>","null","html-keyboard-response","21","56456","0.0-3.0-0.9","","fixation","","",""
"1283","Set1/148b.jpg","79","image-keyboard-response","22","57745","0.0-3.0-1.9","","","Update","n","false"
"null","<div style=""font-size:60px;"">+</div>","null","html-keyboard-response","23","58269","0.0-3.0-0.10","","fixation","","",""
"1139","Set1/172a.jpg","79","image-keyboard-response","24","59412","0.0-3.0-1.10","","","Set_2_Only","o","true"
"null","<div style=""font-size:60px;"">+</div>","null","html-keyboard-response","25","59938","0.0-3.0-0.11","","fixation","","",""
"1269","Set1/035a.jpg","79","image-keyboard-response","26","61213","0.0-3.0-1.11","","","Repeat","n","false"
"null","<div style=""font-size:60px;"">+</div>","null","html-keyboard-response","27","61729","0.0-3.0-0.12","","fixation","","",""
"1865","Set1/170a.jpg","78","image-keyboard-response","28","63598","0.0-3.0-1.12","","","Set_2_Only","n","true"
"null","<div style=""font-size:60px;"">+</div>","null","html-keyboard-response","29","64105","0.0-3.0-0.13","","fixation","","",""
"2011","Set1/179a.jpg","79","image-keyboard-response","30","66119","0.0-3.0-1.13","","","Set_2_Only","o","true"
"null","<div style=""font-size:60px;"">+</div>","null","html-keyboard-response","31","66637","0.0-3.0-0.14","","fixation","","",""
"1389","Set1/153b.jpg","79","image-keyboard-response","32","68031","0.0-3.0-1.14","","","Update","n","false"
"null","<div style=""font-size:60px;"">+</div>","null","html-keyboard-response","33","68543","0.0-3.0-0.15","","fixation","","",""
"1221","Set1/083a.jpg","79","image-keyboard-response","34","69770","0.0-3.0-1.15","","","Repeat","n","false"
"null","<div style=""font-size:60px;"">+</div>","null","html-keyboard-response","35","70285","0.0-3.0-0.16","","fixation","","",""
"1584","Set1/126b.jpg","79","image-keyboard-response","36","71876","0.0-3.0-1.16","","","Update","n","false"
"null","<div style=""font-size:60px;"">+</div>","null","html-keyboard-response","37","72394","0.0-3.0-0.17","","fixation","","",""
"1676","Set1/135b.jpg","79","image-keyboard-response","38","74077","0.0-3.0-1.17","","","Update","n","false"
"null","<div style=""font-size:60px;"">+</div>","null","html-keyboard-response","39","74584","0.0-3.0-0.18","","fixation","","",""
"1300","Set1/108b.jpg","79","image-keyboard-response","40","75889","0.0-3.0-1.18","","","Update","n","false"
"null","<div style=""font-size:60px;"">+</div>","null","html-keyboard-response","41","76399","0.0-3.0-0.19","","fixation","","",""
"1407","Set1/142b.jpg","79","image-keyboard-response","42","77811","0.0-3.0-1.19","","","Update","o","true"
"null","<div style=""font-size:60px;"">+</div>","null","html-keyboard-response","43","78318","0.0-3.0-0.20","","fixation","","",""
"1544","Set1/138b.jpg","79","image-keyboard-response","44","79868","0.0-3.0-1.20","","","Update","n","false"
"null","<div style=""font-size:60px;"">+</div>","null","html-keyboard-response","45","80381","0.0-3.0-0.21","","fixation","","",""
"2043","Set1/171a.jpg","78","image-keyboard-response","46","82430","0.0-3.0-1.21","","","Set_2_Only","n","true"
"null","<div style=""font-size:60px;"">+</div>","null","html-keyboard-response","47","82946","0.0-3.0-0.22","","fixation","","",""
"967","Set1/148b.jpg","79","image-keyboard-response","48","83916","0.0-3.0-1.22","","","Update","o","true"
"null","<div style=""font-size:60px;"">+</div>","null","html-keyboard-response","49","84430","0.0-3.0-0.23","","fixation","","",""
"1043","Set1/083a.jpg","79","image-keyboard-response","50","85478","0.0-3.0-1.23","","","Repeat","o","true"
"null","<div style=""font-size:60px;"">+</div>","null","html-keyboard-response","51","85993","0.0-3.0-0.24","","fixation","","",""
"1479","Set1/141b.jpg","79","image-keyboard-response","52","87481","0.0-3.0-1.24","","","Update","n","false"
"null","<div style=""font-size:60px;"">+</div>","null","html-keyboard-response","53","87995","0.0-3.0-0.25","","fixation","","",""
"1336","Set1/123b.jpg","79","image-keyboard-response","54","89336","0.0-3.0-1.25","","","Update","n","false"
"null","<div style=""font-size:60px;"">+</div>","null","html-keyboard-response","55","89871","0.0-3.0-0.26","","fixation","","",""
"1351","Set1/145b.jpg","79","image-keyboard-response","56","91230","0.0-3.0-1.26","","","Update","n","false"
"null","<div style=""font-size:60px;"">+</div>","null","html-keyboard-response","57","91745","0.0-3.0-0.27","","fixation","","",""
"1689","Set1/175a.jpg","78","image-keyboard-response","58","93443","0.0-3.0-1.27","","","Set_2_Only","n","true"
"null","<div style=""font-size:60px;"">+</div>","null","html-keyboard-response","59","93965","0.0-3.0-0.28","","fixation","","",""
"1929","Set1/177a.jpg","79","image-keyboard-response","60","95903","0.0-3.0-1.28","","","Set_2_Only","n","false"
"null","<div style=""font-size:60px;"">+</div>","null","html-keyboard-response","61","96421","0.0-3.0-0.29","","fixation","","",""
"1838","Set1/119b.jpg","78","image-keyboard-response","62","98267","0.0-3.0-1.29","","","Update","n","true"
"null","<div style=""font-size:60px;"">+</div>","null","html-keyboard-response","63","98780","0.0-3.0-0.30","","fixation","","",""
"1676","Set1/177a.jpg","79","image-keyboard-response","64","100462","0.0-3.0-1.30","","","Set_2_Only","o","true"
"null","<div style=""font-size:60px;"">+</div>","null","html-keyboard-response","65","100969","0.0-3.0-0.31","","fixation","","",""
"1907","Set1/038a.jpg","79","image-keyboard-response","66","102885","0.0-3.0-1.31","","","Repeat","n","false"
"null","<div style=""font-size:60px;"">+</div>","null","html-keyboard-response","67","103393","0.0-3.0-0.32","","fixation","","",""
"948","Set1/035a.jpg","79","image-keyboard-response","68","104345","0.0-3.0-1.32","","","Repeat","o","true"
"null","<div style=""font-size:60px;"">+</div>","null","html-keyboard-response","69","104867","0.0-3.0-0.33","","fixation","","",""
"1306","Set1/171a.jpg","79","image-keyboard-response","70","106180","0.0-3.0-1.33","","","Set_2_Only","o","true"
"null","<div style=""font-size:60px;"">+</div>","null","html-keyboard-response","71","106696","0.0-3.0-0.34","","fixation","","",""
"1640","Set1/157b.jpg","79","image-keyboard-response","72","108345","0.0-3.0-1.34","","","Update","n","false"
"null","<div style=""font-size:60px;"">+</div>","null","html-keyboard-response","73","108851","0.0-3.0-0.35","","fixation","","",""
"1464","Set1/170a.jpg","79","image-keyboard-response","74","110322","0.0-3.0-1.35","","","Set_2_Only","o","true"
"null","<div style=""font-size:60px;"">+</div>","null","html-keyboard-response","75","110838","0.0-3.0-0.36","","fixation","","",""
"1149","Set1/135b.jpg","79","image-keyboard-response","76","111993","0.0-3.0-1.36","","","Update","o","true"
"null","<div style=""font-size:60px;"">+</div>","null","html-keyboard-response","77","112526","0.0-3.0-0.37","","fixation","","",""
"1175","Set1/090a.jpg","79","image-keyboard-response","78","113712","0.0-3.0-1.37","","","Repeat","o","true"
"null","<div style=""font-size:60px;"">+</div>","null","html-keyboard-response","79","114230","0.0-3.0-0.38","","fixation","","",""
"1054","Set1/095a.jpg","79","image-keyboard-response","80","115293","0.0-3.0-1.38","","","Repeat","o","true"
"null","<div style=""font-size:60px;"">+</div>","null","html-keyboard-response","81","115823","0.0-3.0-0.39","","fixation","","",""
"961","Set1/108b.jpg","79","image-keyboard-response","82","116791","0.0-3.0-1.39","","","Update","o","true"
"null","<div style=""font-size:60px;"">+</div>","null","html-keyboard-response","83","117319","0.0-3.0-0.40","","fixation","","",""
"2063","Set1/040a.jpg","79","image-keyboard-response","84","119394","0.0-3.0-1.40","","","Repeat","n","false"
"null","<div style=""font-size:60px;"">+</div>","null","html-keyboard-response","85","119899","0.0-3.0-0.41","","fixation","","",""
"1451","Set1/058a.jpg","79","image-keyboard-response","86","121359","0.0-3.0-1.41","","","Repeat","n","false"
"null","<div style=""font-size:60px;"">+</div>","null","html-keyboard-response","87","121876","0.0-3.0-0.42","","fixation","","",""
"1593","Set1/140b.jpg","79","image-keyboard-response","88","123474","0.0-3.0-1.42","","","Update","n","false"
"null","<div style=""font-size:60px;"">+</div>","null","html-keyboard-response","89","124001","0.0-3.0-0.43","","fixation","","",""
"1673","Set1/037a.jpg","79","image-keyboard-response","90","125686","0.0-3.0-1.43","","","Repeat","o","true"
"null","<div style=""font-size:60px;"">+</div>","null","html-keyboard-response","91","126200","0.0-3.0-0.44","","fixation","","",""
"1058","Set1/153b.jpg","79","image-keyboard-response","92","127269","0.0-3.0-1.44","","","Update","o","true"
"null","<div style=""font-size:60px;"">+</div>","null","html-keyboard-response","93","127783","0.0-3.0-0.45","","fixation","","",""
"2352","Set1/168a.jpg","78","image-keyboard-response","94","130146","0.0-3.0-1.45","","","Set_2_Only","n","true"
"null","<div style=""font-size:60px;"">+</div>","null","html-keyboard-response","95","130661","0.0-3.0-0.46","","fixation","","",""
"2061","Set1/091a.jpg","79","image-keyboard-response","96","132730","0.0-3.0-1.46","","","Repeat","n","false"
"null","<div style=""font-size:60px;"">+</div>","null","html-keyboard-response","97","133242","0.0-3.0-0.47","","fixation","","",""
"1087","Set1/119b.jpg","79","image-keyboard-response","98","134349","0.0-3.0-1.47","","","Update","o","true"
"null","<div style=""font-size:60px;"">+</div>","null","html-keyboard-response","99","134867","0.0-3.0-0.48","","fixation","","",""
"1255","Set1/168a.jpg","79","image-keyboard-response","100","136128","0.0-3.0-1.48","","","Set_2_Only","o","true"
"null","<div style=""font-size:60px;"">+</div>","null","html-keyboard-response","101","136650","0.0-3.0-0.49","","fixation","","",""
"1028","Set1/038a.jpg","79","image-keyboard-response","102","137703","0.0-3.0-1.49","","","Repeat","o","true"
"null","<div style=""font-size:60px;"">+</div>","null","html-keyboard-response","103","138229","0.0-3.0-0.50","","fixation","","",""
"2297","Set1/154b.jpg","79","image-keyboard-response","104","140536","0.0-3.0-1.50","","","Update","n","false"
"null","<div style=""font-size:60px;"">+</div>","null","html-keyboard-response","105","141045","0.0-3.0-0.51","","fixation","","",""
"1944","Set1/067a.jpg","79","image-keyboard-response","106","142997","0.0-3.0-1.51","","","Repeat","n","false"
"null","<div style=""font-size:60px;"">+</div>","null","html-keyboard-response","107","143515","0.0-3.0-0.52","","fixation","","",""
"1125","Set1/080a.jpg","79","image-keyboard-response","108","144652","0.0-3.0-1.52","","","Repeat","o","true"
"null","<div style=""font-size:60px;"">+</div>","null","html-keyboard-response","109","145173","0.0-3.0-0.53","","fixation","","",""
"1031","Set1/154b.jpg","79","image-keyboard-response","110","146208","0.0-3.0-1.53","","","Update","o","true"
"null","<div style=""font-size:60px;"">+</div>","null","html-keyboard-response","111","146718","0.0-3.0-0.54","","fixation","","",""
"2546","Set1/087a.jpg","79","image-keyboard-response","112","149270","0.0-3.0-1.54","","","Repeat","n","false"
"null","<div style=""font-size:60px;"">+</div>","null","html-keyboard-response","113","149775","0.0-3.0-0.55","","fixation","","",""
"1360","Set1/149b.jpg","79","image-keyboard-response","114","151143","0.0-3.0-1.55","","","Update","n","false"
"null","<div style=""font-size:60px;"">+</div>","null","html-keyboard-response","115","151660","0.0-3.0-0.56","","fixation","","",""
"2098","Set1/173a.jpg","78","image-keyboard-response","116","153766","0.0-3.0-1.56","","","Set_2_Only","n","true"
"null","<div style=""font-size:60px;"">+</div>","null","html-keyboard-response","117","154292","0.0-3.0-0.57","","fixation","","",""
"1101","Set1/040a.jpg","79","image-keyboard-response","118","155399","0.0-3.0-1.57","","","Repeat","o","true"
"null","<div style=""font-size:60px;"">+</div>","null","html-keyboard-response","119","155908","0.0-3.0-0.58","","fixation","","",""
"1043","Set1/058a.jpg","79","image-keyboard-response","120","156956","0.0-3.0-1.58","","","Repeat","o","true"
"null","<div style=""font-size:60px;"">+</div>","null","html-keyboard-response","121","157474","0.0-3.0-0.59","","fixation","","",""
"1040","Set1/173a.jpg","79","image-keyboard-response","122","158518","0.0-3.0-1.59","","","Set_2_Only","o","true"
"null","<div style=""font-size:60px;"">+</div>","null","html-keyboard-response","123","159036","0.0-3.0-0.60","","fixation","","",""
"1533","Set1/140b.jpg","79","image-keyboard-response","124","160572","0.0-3.0-1.60","","","Update","o","true"
"null","<div style=""font-size:60px;"">+</div>","null","html-keyboard-response","125","161098","0.0-3.0-0.61","","fixation","","",""
"1693","Set1/187a.jpg","79","image-keyboard-response","126","162797","0.0-3.0-1.61","","","Set_2_Only","n","false"
"null","<div style=""font-size:60px;"">+</div>","null","html-keyboard-response","127","163305","0.0-3.0-0.62","","fixation","","",""
"1013","Set1/067a.jpg","79","image-keyboard-response","128","164327","0.0-3.0-1.62","","","Repeat","o","true"
"null","<div style=""font-size:60px;"">+</div>","null","html-keyboard-response","129","164850","0.0-3.0-0.63","","fixation","","",""
"973","Set1/126b.jpg","79","image-keyboard-response","130","165836","0.0-3.0-1.63","","","Update","o","true"
"null","<div style=""font-size:60px;"">+</div>","null","html-keyboard-response","131","166353","0.0-3.0-0.64","","fixation","","",""
"2119","Set1/188a.jpg","79","image-keyboard-response","132","168478","0.0-3.0-1.64","","","Set_2_Only","n","false"
"null","<div style=""font-size:60px;"">+</div>","null","html-keyboard-response","133","168993","0.0-3.0-0.65","","fixation","","",""
"941","Set1/145b.jpg","79","image-keyboard-response","134","169947","0.0-3.0-1.65","","","Update","o","true"
"null","<div style=""font-size:60px;"">+</div>","null","html-keyboard-response","135","170464","0.0-3.0-0.66","","fixation","","",""
"1026","Set1/075a.jpg","79","image-keyboard-response","136","171501","0.0-3.0-1.66","","","Repeat","o","true"
"null","<div style=""font-size:60px;"">+</div>","null","html-keyboard-response","137","172009","0.0-3.0-0.67","","fixation","","",""
"1610","Set1/059a.jpg","78","image-keyboard-response","138","173627","0.0-3.0-1.67","","","Repeat","n","true"
"null","<div style=""font-size:60px;"">+</div>","null","html-keyboard-response","139","174133","0.0-3.0-0.68","","fixation","","",""
"869","Set1/149b.jpg","79","image-keyboard-response","140","175009","0.0-3.0-1.68","","","Update","o","true"
"null","<div style=""font-size:60px;"">+</div>","null","html-keyboard-response","141","175518","0.0-3.0-0.69","","fixation","","",""
"1008","Set1/087a.jpg","79","image-keyboard-response","142","176535","0.0-3.0-1.69","","","Repeat","o","true"
"null","<div style=""font-size:60px;"">+</div>","null","html-keyboard-response","143","177041","0.0-3.0-0.70","","fixation","","",""
"1146","Set1/187a.jpg","79","image-keyboard-response","144","178191","0.0-3.0-1.70","","","Set_2_Only","o","true"
"null","<div style=""font-size:60px;"">+</div>","null","html-keyboard-response","145","178700","0.0-3.0-0.71","","fixation","","",""
"1194","Set1/059a.jpg","79","image-keyboard-response","146","179898","0.0-3.0-1.71","","","Repeat","o","true"
"null","<div style=""font-size:60px;"">+</div>","null","html-keyboard-response","147","180417","0.0-3.0-0.72","","fixation","","",""
"950","Set1/157b.jpg","79","image-keyboard-response","148","181376","0.0-3.0-1.72","","","Update","o","true"
"null","<div style=""font-size:60px;"">+</div>","null","html-keyboard-response","149","181899","0.0-3.0-0.73","","fixation","","",""
"1027","Set1/123b.jpg","79","image-keyboard-response","150","182935","0.0-3.0-1.73","","","Update","o","true"
"null","<div style=""font-size:60px;"">+</div>","null","html-keyboard-response","151","183466","0.0-3.0-0.74","","fixation","","",""
"1162","Set1/175a.jpg","79","image-keyboard-response","152","184637","0.0-3.0-1.74","","","Set_2_Only","o","true"
"null","<div style=""font-size:60px;"">+</div>","null","html-keyboard-response","153","185154","0.0-3.0-0.75","","fixation","","",""
"974","Set1/188a.jpg","79","image-keyboard-response","154","186129","0.0-3.0-1.75","","","Set_2_Only","o","true"
"null","<div style=""font-size:60px;"">+</div>","null","html-keyboard-response","155","186649","0.0-3.0-0.76","","fixation","","",""
"907","Set1/039a.jpg","79","image-keyboard-response","156","187566","0.0-3.0-1.76","","","Repeat","o","true"
"null","<div style=""font-size:60px;"">+</div>","null","html-keyboard-response","157","188092","0.0-3.0-0.77","","fixation","","",""
"1044","Set1/141b.jpg","79","image-keyboard-response","158","189147","0.0-3.0-1.77","","","Update","o","true"
"null","<div style=""font-size:60px;"">+</div>","null","html-keyboard-response","159","189669","0.0-3.0-0.78","","fixation","","",""
"874","Set1/091a.jpg","79","image-keyboard-response","160","190562","0.0-3.0-1.78","","","Repeat","o","true"
"null","<div style=""font-size:60px;"">+</div>","null","html-keyboard-response","161","191079","0.0-3.0-0.79","","fixation","","",""
"875","Set1/138b.jpg","79","image-keyboard-response","162","191960","0.0-3.0-1.79","","","Update","o","true"
"null","<div style=""font-size:60px;"">+</div>","null","html-keyboard-response","163","192479","0.0-3.0-0.80","","fixation","","",""
"1328","Set1/055a.jpg","79","image-keyboard-response","164","193816","0.0-3.0-1.80","","","Repeat","n","false"
"null","<div style=""font-size:60px;"">+</div>","null","html-keyboard-response","165","194331","0.0-3.0-0.81","","fixation","","",""
"1350","Set1/128b.jpg","78","image-keyboard-response","166","195687","0.0-3.0-1.81","","","Update","n","true"
"null","<div style=""font-size:60px;"">+</div>","null","html-keyboard-response","167","196195","0.0-3.0-0.82","","fixation","","",""
"1491","Set1/046a.jpg","79","image-keyboard-response","168","197691","0.0-3.0-1.82","","","Repeat","n","false"
"null","<div style=""font-size:60px;"">+</div>","null","html-keyboard-response","169","198225","0.0-3.0-0.83","","fixation","","",""
"1455","Set1/139b.jpg","79","image-keyboard-response","170","199690","0.0-3.0-1.83","","","Update","n","false"
"null","<div style=""font-size:60px;"">+</div>","null","html-keyboard-response","171","200209","0.0-3.0-0.84","","fixation","","",""
"1416","Set1/084a.jpg","79","image-keyboard-response","172","201632","0.0-3.0-1.84","","","Repeat","n","false"
"null","<div style=""font-size:60px;"">+</div>","null","html-keyboard-response","173","202137","0.0-3.0-0.85","","fixation","","",""
"1046","Set1/147b.jpg","79","image-keyboard-response","174","203194","0.0-3.0-1.85","","","Update","n","false"
"null","<div style=""font-size:60px;"">+</div>","null","html-keyboard-response","175","203700","0.0-3.0-0.86","","fixation","","",""
"1372","Set1/176a.jpg","78","image-keyboard-response","176","205079","0.0-3.0-1.86","","","Set_2_Only","n","true"
"null","<div style=""font-size:60px;"">+</div>","null","html-keyboard-response","177","205608","0.0-3.0-0.87","","fixation","","",""
"1473","Set1/042a.jpg","79","image-keyboard-response","178","207088","0.0-3.0-1.87","","","Repeat","n","false"
"null","<div style=""font-size:60px;"">+</div>","null","html-keyboard-response","179","207593","0.0-3.0-0.88","","fixation","","",""
"1791","Set1/114b.jpg","79","image-keyboard-response","180","209389","0.0-3.0-1.88","","","Update","n","false"
"null","<div style=""font-size:60px;"">+</div>","null","html-keyboard-response","181","209897","0.0-3.0-0.89","","fixation","","",""
"1855","Set1/064a.jpg","79","image-keyboard-response","182","211761","0.0-3.0-1.89","","","Repeat","n","false"
"null","<div style=""font-size:60px;"">+</div>","null","html-keyboard-response","183","212289","0.0-3.0-0.90","","fixation","","",""
"1640","Set1/036a.jpg","79","image-keyboard-response","184","213935","0.0-3.0-1.90","","","Repeat","n","false"
"null","<div style=""font-size:60px;"">+</div>","null","html-keyboard-response","185","214455","0.0-3.0-0.91","","fixation","","",""
"898","Set1/139b.jpg","79","image-keyboard-response","186","215357","0.0-3.0-1.91","","","Update","o","true"
"null","<div style=""font-size:60px;"">+</div>","null","html-keyboard-response","187","215879","0.0-3.0-0.92","","fixation","","",""
"889","Set1/128b.jpg","79","image-keyboard-response","188","216770","0.0-3.0-1.92","","","Update","o","true"
"null","<div style=""font-size:60px;"">+</div>","null","html-keyboard-response","189","217301","0.0-3.0-0.93","","fixation","","",""
"1164","Set1/044a.jpg","79","image-keyboard-response","190","218469","0.0-3.0-1.93","","","Repeat","n","false"
"null","<div style=""font-size:60px;"">+</div>","null","html-keyboard-response","191","218987","0.0-3.0-0.94","","fixation","","",""
"1824","Set1/162a.jpg","78","image-keyboard-response","192","220818","0.0-3.0-1.94","","","Set_2_Only","n","true"
"null","<div style=""font-size:60px;"">+</div>","null","html-keyboard-response","193","221324","0.0-3.0-0.95","","fixation","","",""
"2875","Set1/074a.jpg","79","image-keyboard-response","194","224205","0.0-3.0-1.95","","","Repeat","n","false"
"null","<div style=""font-size:60px;"">+</div>","null","html-keyboard-response","195","224730","0.0-3.0-0.96","","fixation","","",""
"1004","Set1/114b.jpg","79","image-keyboard-response","196","225740","0.0-3.0-1.96","","","Update","o","true"
"null","<div style=""font-size:60px;"">+</div>","null","html-keyboard-response","197","226264","0.0-3.0-0.97","","fixation","","",""
"2753","Set1/159b.jpg","79","image-keyboard-response","198","229022","0.0-3.0-1.97","","","Update","n","false"
"null","<div style=""font-size:60px;"">+</div>","null","html-keyboard-response","199","229550","0.0-3.0-0.98","","fixation","","",""
"2451","Set1/143b.jpg","78","image-keyboard-response","200","232009","0.0-3.0-1.98","","","Update","n","true"
"null","<div style=""font-size:60px;"">+</div>","null","html-keyboard-response","201","232523","0.0-3.0-0.99","","fixation","","",""
"2234","Set1/103b.jpg","78","image-keyboard-response","202","234762","0.0-3.0-1.99","","","Update","n","true"
"null","<div style=""font-size:60px;"">+</div>","null","html-keyboard-response","203","235273","0.0-3.0-0.100","","fixation","","",""
"1313","Set1/047a.jpg","79","image-keyboard-response","204","236593","0.0-3.0-1.100","","","Repeat","n","false"
"null","<div style=""font-size:60px;"">+</div>","null","html-keyboard-response","205","237102","0.0-3.0-0.101","","fixation","","",""
"934","Set1/064a.jpg","79","image-keyboard-response","206","238043","0.0-3.0-1.101","","","Repeat","o","true"
"null","<div style=""font-size:60px;"">+</div>","null","html-keyboard-response","207","238566","0.0-3.0-0.102","","fixation","","",""
"1681","Set1/191a.jpg","78","image-keyboard-response","208","240252","0.0-3.0-1.102","","","Set_2_Only","n","true"
"null","<div style=""font-size:60px;"">+</div>","null","html-keyboard-response","209","240766","0.0-3.0-0.103","","fixation","","",""
"1404","Set1/071a.jpg","79","image-keyboard-response","210","242174","0.0-3.0-1.103","","","Repeat","n","false"
"null","<div style=""font-size:60px;"">+</div>","null","html-keyboard-response","211","242686","0.0-3.0-0.104","","fixation","","",""
"1354","Set1/096a.jpg","79","image-keyboard-response","212","244045","0.0-3.0-1.104","","","Repeat","n","false"
"null","<div style=""font-size:60px;"">+</div>","null","html-keyboard-response","213","244561","0.0-3.0-0.105","","fixation","","",""
"2693","Set1/098b.jpg","79","image-keyboard-response","214","247261","0.0-3.0-1.105","","","Update","n","false"
"null","<div style=""font-size:60px;"">+</div>","null","html-keyboard-response","215","247780","0.0-3.0-0.106","","fixation","","",""
"1413","Set1/106b.jpg","79","image-keyboard-response","216","249198","0.0-3.0-1.106","","","Update","n","false"
"null","<div style=""font-size:60px;"">+</div>","null","html-keyboard-response","217","249712","0.0-3.0-0.107","","fixation","","",""
"868","Set1/159b.jpg","79","image-keyboard-response","218","250584","0.0-3.0-1.107","","","Update","o","true"
"null","<div style=""font-size:60px;"">+</div>","null","html-keyboard-response","219","251094","0.0-3.0-0.108","","fixation","","",""
"979","Set1/071a.jpg","79","image-keyboard-response","220","252079","0.0-3.0-1.108","","","Repeat","o","true"
"null","<div style=""font-size:60px;"">+</div>","null","html-keyboard-response","221","252593","0.0-3.0-0.109","","fixation","","",""
"942","Set1/047a.jpg","79","image-keyboard-response","222","253549","0.0-3.0-1.109","","","Repeat","o","true"
"null","<div style=""font-size:60px;"">+</div>","null","html-keyboard-response","223","254063","0.0-3.0-0.110","","fixation","","",""
"1917","Set1/144b.jpg","78","image-keyboard-response","224","255990","0.0-3.0-1.110","","","Update","n","true"
"null","<div style=""font-size:60px;"">+</div>","null","html-keyboard-response","225","256517","0.0-3.0-0.111","","fixation","","",""
"1957","Set1/069a.jpg","78","image-keyboard-response","226","258484","0.0-3.0-1.111","","","Repeat","n","true"
"null","<div style=""font-size:60px;"">+</div>","null","html-keyboard-response","227","258991","0.0-3.0-0.112","","fixation","","",""
"1519","Set1/034a.jpg","79","image-keyboard-response","228","260517","0.0-3.0-1.112","","","Repeat","n","false"
"null","<div style=""font-size:60px;"">+</div>","null","html-keyboard-response","229","261027","0.0-3.0-0.113","","fixation","","",""
"1353","Set1/050a.jpg","79","image-keyboard-response","230","262386","0.0-3.0-1.113","","","Repeat","n","false"
"null","<div style=""font-size:60px;"">+</div>","null","html-keyboard-response","231","262894","0.0-3.0-0.114","","fixation","","",""
"1515","Set1/068a.jpg","79","image-keyboard-response","232","264419","0.0-3.0-1.114","","","Repeat","n","false"
"null","<div style=""font-size:60px;"">+</div>","null","html-keyboard-response","233","264942","0.0-3.0-0.115","","fixation","","",""
"1786","Set1/130b.jpg","79","image-keyboard-response","234","266733","0.0-3.0-1.115","","","Update","n","false"
"null","<div style=""font-size:60px;"">+</div>","null","html-keyboard-response","235","267244","0.0-3.0-0.116","","fixation","","",""
"979","Set1/046a.jpg","79","image-keyboard-response","236","268229","0.0-3.0-1.116","","","Repeat","o","true"
"null","<div style=""font-size:60px;"">+</div>","null","html-keyboard-response","237","268735","0.0-3.0-0.117","","fixation","","",""
"1447","Set1/073a.jpg","79","image-keyboard-response","238","270187","0.0-3.0-1.117","","","Repeat","n","false"
"null","<div style=""font-size:60px;"">+</div>","null","html-keyboard-response","239","270707","0.0-3.0-0.118","","fixation","","",""
"1465","Set1/078a.jpg","79","image-keyboard-response","240","272177","0.0-3.0-1.118","","","Repeat","n","false"
"null","<div style=""font-size:60px;"">+</div>","null","html-keyboard-response","241","272688","0.0-3.0-0.119","","fixation","","",""
"823","Set1/147b.jpg","79","image-keyboard-response","242","273516","0.0-3.0-1.119","","","Update","o","true"
"null","<div style=""font-size:60px;"">+</div>","null","html-keyboard-response","243","274033","0.0-3.0-0.120","","fixation","","",""
"1482","Set1/066a.jpg","79","image-keyboard-response","244","275524","0.0-3.0-1.120","","","Repeat","n","false"
"null","<div style=""font-size:60px;"">+</div>","null","html-keyboard-response","245","276050","0.0-3.0-0.121","","fixation","","",""
"951","Set1/106b.jpg","79","image-keyboard-response","246","277007","0.0-3.0-1.121","","","Update","o","true"
"null","<div style=""font-size:60px;"">+</div>","null","html-keyboard-response","247","277534","0.0-3.0-0.122","","fixation","","",""
"2746","Set1/112b.jpg","78","image-keyboard-response","248","280287","0.0-3.0-1.122","","","Update","n","true"
"null","<div style=""font-size:60px;"">+</div>","null","html-keyboard-response","249","280808","0.0-3.0-0.123","","fixation","","",""
"1828","Set1/185a.jpg","78","image-keyboard-response","250","282645","0.0-3.0-1.123","","","Set_2_Only","n","true"
"null","<div style=""font-size:60px;"">+</div>","null","html-keyboard-response","251","283166","0.0-3.0-0.124","","fixation","","",""
"952","Set1/036a.jpg","79","image-keyboard-response","252","284128","0.0-3.0-1.124","","","Repeat","o","true"
"null","<div style=""font-size:60px;"">+</div>","null","html-keyboard-response","253","284636","0.0-3.0-0.125","","fixation","","",""
"822","Set1/098b.jpg","79","image-keyboard-response","254","285467","0.0-3.0-1.125","","","Update","o","true"
"null","<div style=""font-size:60px;"">+</div>","null","html-keyboard-response","255","285980","0.0-3.0-0.126","","fixation","","",""
"1136","Set1/096a.jpg","79","image-keyboard-response","256","287127","0.0-3.0-1.126","","","Repeat","o","true"
"null","<div style=""font-size:60px;"">+</div>","null","html-keyboard-response","257","287637","0.0-3.0-0.127","","fixation","","",""
"854","Set1/185a.jpg","79","image-keyboard-response","258","288497","0.0-3.0-1.127","","","Set_2_Only","o","true"
"null","<div style=""font-size:60px;"">+</div>","null","html-keyboard-response","259","289012","0.0-3.0-0.128","","fixation","","",""
"782","Set1/066a.jpg","79","image-keyboard-response","260","289800","0.0-3.0-1.128","","","Repeat","o","true"
"null","<div style=""font-size:60px;"">+</div>","null","html-keyboard-response","261","290309","0.0-3.0-0.129","","fixation","","",""
"1142","Set1/144b.jpg","79","image-keyboard-response","262","291460","0.0-3.0-1.129","","","Update","o","true"
"null","<div style=""font-size:60px;"">+</div>","null","html-keyboard-response","263","291968","0.0-3.0-0.130","","fixation","","",""
"1092","Set1/112b.jpg","79","image-keyboard-response","264","293064","0.0-3.0-1.130","","","Update","o","true"
"null","<div style=""font-size:60px;"">+</div>","null","html-keyboard-response","265","293594","0.0-3.0-0.131","","fixation","","",""
"1287","Set1/162a.jpg","79","image-keyboard-response","266","294887","0.0-3.0-1.131","","","Set_2_Only","o","true"
"null","<div style=""font-size:60px;"">+</div>","null","html-keyboard-response","267","295406","0.0-3.0-0.132","","fixation","","",""
"934","Set1/176a.jpg","79","image-keyboard-response","268","296348","0.0-3.0-1.132","","","Set_2_Only","o","true"
"null","<div style=""font-size:60px;"">+</div>","null","html-keyboard-response","269","296861","0.0-3.0-0.133","","fixation","","",""
"936","Set1/050a.jpg","79","image-keyboard-response","270","297805","0.0-3.0-1.133","","","Repeat","o","true"
"null","<div style=""font-size:60px;"">+</div>","null","html-keyboard-response","271","298330","0.0-3.0-0.134","","fixation","","",""
"836","Set1/078a.jpg","79","image-keyboard-response","272","299268","0.0-3.0-1.134","","","Repeat","o","true"
"null","<div style=""font-size:60px;"">+</div>","null","html-keyboard-response","273","299790","0.0-3.0-0.135","","fixation","","",""
"1599","Set1/150b.jpg","79","image-keyboard-response","274","301400","0.0-3.0-1.135","","","Update","n","false"
"null","<div style=""font-size:60px;"">+</div>","null","html-keyboard-response","275","301915","0.0-3.0-0.136","","fixation","","",""
"1911","Set1/043a.jpg","79","image-keyboard-response","276","303833","0.0-3.0-1.136","","","Repeat","n","false"
"null","<div style=""font-size:60px;"">+</div>","null","html-keyboard-response","277","304355","0.0-3.0-0.137","","fixation","","",""
"1707","Set1/100b.jpg","79","image-keyboard-response","278","306070","0.0-3.0-1.137","","","Update","n","false"
"null","<div style=""font-size:60px;"">+</div>","null","html-keyboard-response","279","306588","0.0-3.0-0.138","","fixation","","",""
"954","Set1/042a.jpg","79","image-keyboard-response","280","307551","0.0-3.0-1.138","","","Repeat","o","true"
"null","<div style=""font-size:60px;"">+</div>","null","html-keyboard-response","281","308059","0.0-3.0-0.139","","fixation","","",""
"1605","Set1/131b.jpg","79","image-keyboard-response","282","309670","0.0-3.0-1.139","","","Update","n","false"
"null","<div style=""font-size:60px;"">+</div>","null","html-keyboard-response","283","310184","0.0-3.0-0.140","","fixation","","",""
"1037","Set1/073a.jpg","79","image-keyboard-response","284","311237","0.0-3.0-1.140","","","Repeat","o","true"
"null","<div style=""font-size:60px;"">+</div>","null","html-keyboard-response","285","311756","0.0-3.0-0.141","","fixation","","",""
"900","Set1/074a.jpg","79","image-keyboard-response","286","312663","0.0-3.0-1.141","","","Repeat","o","true"
"null","<div style=""font-size:60px;"">+</div>","null","html-keyboard-response","287","313193","0.0-3.0-0.142","","fixation","","",""
"885","Set1/034a.jpg","79","image-keyboard-response","288","314083","0.0-3.0-1.142","","","Repeat","o","true"
"null","<div style=""font-size:60px;"">+</div>","null","html-keyboard-response","289","314591","0.0-3.0-0.143","","fixation","","",""
"874","Set1/068a.jpg","79","image-keyboard-response","290","315471","0.0-3.0-1.143","","","Repeat","o","true"
"null","<div style=""font-size:60px;"">+</div>","null","html-keyboard-response","291","315989","0.0-3.0-0.144","","fixation","","",""
"1117","Set1/191a.jpg","78","image-keyboard-response","292","317119","0.0-3.0-1.144","","","Set_2_Only","o","false"
"null","<div style=""font-size:60px;"">+</div>","null","html-keyboard-response","293","317640","0.0-3.0-0.145","","fixation","","",""
"878","Set1/131b.jpg","79","image-keyboard-response","294","318537","0.0-3.0-1.145","","","Update","o","true"
"null","<div style=""font-size:60px;"">+</div>","null","html-keyboard-response","295","319061","0.0-3.0-0.146","","fixation","","",""
"880","Set1/043a.jpg","79","image-keyboard-response","296","319954","0.0-3.0-1.146","","","Repeat","o","true"
"null","<div style=""font-size:60px;"">+</div>","null","html-keyboard-response","297","320470","0.0-3.0-0.147","","fixation","","",""
"911","Set1/100b.jpg","79","image-keyboard-response","298","321387","0.0-3.0-1.147","","","Update","o","true"
"null","<div style=""font-size:60px;"">+</div>","null","html-keyboard-response","299","321891","0.0-3.0-0.148","","fixation","","",""
"1119","Set1/055a.jpg","79","image-keyboard-response","300","323024","0.0-3.0-1.148","","","Repeat","o","true"
"null","<div style=""font-size:60px;"">+</div>","null","html-keyboard-response","301","323533","0.0-3.0-0.149","","fixation","","",""
"1532","Set1/041a.jpg","79","image-keyboard-response","302","325075","0.0-3.0-1.149","","","Repeat","n","false"
"null","<div style=""font-size:60px;"">+</div>","null","html-keyboard-response","303","325595","0.0-3.0-0.150","","fixation","","",""
"1062","Set1/069a.jpg","79","image-keyboard-response","304","326666","0.0-3.0-1.150","","","Repeat","o","true"
"null","<div style=""font-size:60px;"">+</div>","null","html-keyboard-response","305","327174","0.0-3.0-0.151","","fixation","","",""
"1675","Set1/061a.jpg","79","image-keyboard-response","306","328856","0.0-3.0-1.151","","","Repeat","n","false"
"null","<div style=""font-size:60px;"">+</div>","null","html-keyboard-response","307","329378","0.0-3.0-0.152","","fixation","","",""
"1165","Set1/103b.jpg","79","image-keyboard-response","308","330556","0.0-3.0-1.152","","","Update","o","true"
"null","<div style=""font-size:60px;"">+</div>","null","html-keyboard-response","309","331065","0.0-3.0-0.153","","fixation","","",""
"1133","Set1/044a.jpg","79","image-keyboard-response","310","332207","0.0-3.0-1.153","","","Repeat","o","true"
"null","<div style=""font-size:60px;"">+</div>","null","html-keyboard-response","311","332721","0.0-3.0-0.154","","fixation","","",""
"1184","Set1/150b.jpg","79","image-keyboard-response","312","333918","0.0-3.0-1.154","","","Update","o","true"
"null","<div style=""font-size:60px;"">+</div>","null","html-keyboard-response","313","334441","0.0-3.0-0.155","","fixation","","",""
"919","Set1/084a.jpg","79","image-keyboard-response","314","335369","0.0-3.0-1.155","","","Repeat","o","true"
"null","<div style=""font-size:60px;"">+</div>","null","html-keyboard-response","315","335879","0.0-3.0-0.156","","fixation","","",""
"872","Set1/130b.jpg","79","image-keyboard-response","316","336759","0.0-3.0-1.156","","","Update","o","true"
"null","<div style=""font-size:60px;"">+</div>","null","html-keyboard-response","317","337269","0.0-3.0-0.157","","fixation","","",""
"1234","Set1/143b.jpg","79","image-keyboard-response","318","338515","0.0-3.0-1.157","","","Update","o","true"
"null","<div style=""font-size:60px;"">+</div>","null","html-keyboard-response","319","339037","0.0-3.0-0.158","","fixation","","",""
"952","Set1/061a.jpg","79","image-keyboard-response","320","340002","0.0-3.0-1.158","","","Repeat","o","true"
"null","<div style=""font-size:60px;"">+</div>","null","html-keyboard-response","321","340523","0.0-3.0-0.159","","fixation","","",""
"937","Set1/041a.jpg","79","image-keyboard-response","322","341470","0.0-3.0-1.159","","","Repeat","o","true"
"null","<div style=""font-size:60px;"">+</div>","null","html-keyboard-response","323","341985","0.0-3.0-0.160","","fixation","","",""
"1072","Set1/113b.jpg","79","image-keyboard-response","324","343069","0.0-3.0-1.160","","","Update","n","false"
"null","<div style=""font-size:60px;"">+</div>","null","html-keyboard-response","325","343596","0.0-3.0-0.161","","fixation","","",""
"1382","Set1/105b.jpg","79","image-keyboard-response","326","344989","0.0-3.0-1.161","","","Update","n","false"
"null","<div style=""font-size:60px;"">+</div>","null","html-keyboard-response","327","345503","0.0-3.0-0.162","","fixation","","",""
"1566","Set1/056a.jpg","78","image-keyboard-response","328","347074","0.0-3.0-1.162","","","Repeat","n","true"
"null","<div style=""font-size:60px;"">+</div>","null","html-keyboard-response","329","347597","0.0-3.0-0.163","","fixation","","",""
"1201","Set1/070a.jpg","79","image-keyboard-response","330","348805","0.0-3.0-1.163","","","Repeat","n","false"
"null","<div style=""font-size:60px;"">+</div>","null","html-keyboard-response","331","349327","0.0-3.0-0.164","","fixation","","",""
"1904","Set1/089a.jpg","79","image-keyboard-response","332","351240","0.0-3.0-1.164","","","Repeat","n","false"
"null","<div style=""font-size:60px;"">+</div>","null","html-keyboard-response","333","351755","0.0-3.0-0.165","","fixation","","",""
"1556","Set1/165a.jpg","78","image-keyboard-response","334","353320","0.0-3.0-1.165","","","Set_2_Only","n","true"
"null","<div style=""font-size:60px;"">+</div>","null","html-keyboard-response","335","353849","0.0-3.0-0.166","","fixation","","",""
"1577","Set1/065a.jpg","78","image-keyboard-response","336","355436","0.0-3.0-1.166","","","Repeat","n","true"
"null","<div style=""font-size:60px;"">+</div>","null","html-keyboard-response","337","355960","0.0-3.0-0.167","","fixation","","",""
"1076","Set1/104b.jpg","79","image-keyboard-response","338","357043","0.0-3.0-1.167","","","Update","n","false"
"null","<div style=""font-size:60px;"">+</div>","null","html-keyboard-response","339","357560","0.0-3.0-0.168","","fixation","","",""
"1053","Set1/065a.jpg","79","image-keyboard-response","340","358616","0.0-3.0-1.168","","","Repeat","o","true"
"null","<div style=""font-size:60px;"">+</div>","null","html-keyboard-response","341","359122","0.0-3.0-0.169","","fixation","","",""
"1213","Set1/082a.jpg","79","image-keyboard-response","342","360342","0.0-3.0-1.169","","","Repeat","n","false"
"null","<div style=""font-size:60px;"">+</div>","null","html-keyboard-response","343","360858","0.0-3.0-0.170","","fixation","","",""
"1052","Set1/134b.jpg","79","image-keyboard-response","344","361918","0.0-3.0-1.170","","","Update","n","false"
"null","<div style=""font-size:60px;"">+</div>","null","html-keyboard-response","345","362437","0.0-3.0-0.171","","fixation","","",""
"978","Set1/158b.jpg","79","image-keyboard-response","346","363426","0.0-3.0-1.171","","","Update","n","false"
"null","<div style=""font-size:60px;"">+</div>","null","html-keyboard-response","347","363954","0.0-3.0-0.172","","fixation","","",""
"1913","Set1/057a.jpg","78","image-keyboard-response","348","365873","0.0-3.0-1.172","","","Repeat","n","true"
"null","<div style=""font-size:60px;"">+</div>","null","html-keyboard-response","349","366392","0.0-3.0-0.173","","fixation","","",""
"932","Set1/105b.jpg","79","image-keyboard-response","350","367334","0.0-3.0-1.173","","","Update","o","true"
"null","<div style=""font-size:60px;"">+</div>","null","html-keyboard-response","351","367844","0.0-3.0-0.174","","fixation","","",""
"1312","Set1/161a.jpg","79","image-keyboard-response","352","369165","0.0-3.0-1.174","","","Set_2_Only","n","false"
"null","<div style=""font-size:60px;"">+</div>","null","html-keyboard-response","353","369675","0.0-3.0-0.175","","fixation","","",""
"1795","Set1/101b.jpg","79","image-keyboard-response","354","371480","0.0-3.0-1.175","","","Update","n","false"
"null","<div style=""font-size:60px;"">+</div>","null","html-keyboard-response","355","372003","0.0-3.0-0.176","","fixation","","",""
"977","Set1/089a.jpg","79","image-keyboard-response","356","372989","0.0-3.0-1.176","","","Repeat","o","true"
"null","<div style=""font-size:60px;"">+</div>","null","html-keyboard-response","357","373503","0.0-3.0-0.177","","fixation","","",""
"848","Set1/101b.jpg","79","image-keyboard-response","358","374361","0.0-3.0-1.177","","","Update","o","true"
"null","<div style=""font-size:60px;"">+</div>","null","html-keyboard-response","359","374879","0.0-3.0-0.178","","fixation","","",""
"876","Set1/134b.jpg","79","image-keyboard-response","360","375759","0.0-3.0-1.178","","","Update","o","true"
"null","<div style=""font-size:60px;"">+</div>","null","html-keyboard-response","361","376273","0.0-3.0-0.179","","fixation","","",""
"902","Set1/161a.jpg","79","image-keyboard-response","362","377185","0.0-3.0-1.179","","","Set_2_Only","o","true"
"null","<div style=""font-size:60px;"">+</div>","null","html-keyboard-response","363","377694","0.0-3.0-0.180","","fixation","","",""
"1227","Set1/116b.jpg","78","image-keyboard-response","364","378931","0.0-3.0-1.180","","","Update","n","true"
"null","<div style=""font-size:60px;"">+</div>","null","html-keyboard-response","365","379460","0.0-3.0-0.181","","fixation","","",""
"1094","Set1/152b.jpg","79","image-keyboard-response","366","380564","0.0-3.0-1.181","","","Update","n","false"
"null","<div style=""font-size:60px;"">+</div>","null","html-keyboard-response","367","381072","0.0-3.0-0.182","","fixation","","",""
"1555","Set1/045a.jpg","78","image-keyboard-response","368","382634","0.0-3.0-1.182","","","Repeat","n","true"
"null","<div style=""font-size:60px;"">+</div>","null","html-keyboard-response","369","383166","0.0-3.0-0.183","","fixation","","",""
"1298","Set1/183a.jpg","79","image-keyboard-response","370","384471","0.0-3.0-1.183","","","Set_2_Only","n","false"
"null","<div style=""font-size:60px;"">+</div>","null","html-keyboard-response","371","384980","0.0-3.0-0.184","","fixation","","",""
"1069","Set1/053a.jpg","79","image-keyboard-response","372","386059","0.0-3.0-1.184","","","Repeat","n","false"
"null","<div style=""font-size:60px;"">+</div>","null","html-keyboard-response","373","386574","0.0-3.0-0.185","","fixation","","",""
"1438","Set1/182a.jpg","78","image-keyboard-response","374","388017","0.0-3.0-1.185","","","Set_2_Only","n","true"
"null","<div style=""font-size:60px;"">+</div>","null","html-keyboard-response","375","388534","0.0-3.0-0.186","","fixation","","",""
"1245","Set1/124b.jpg","79","image-keyboard-response","376","389789","0.0-3.0-1.186","","","Update","n","false"
"null","<div style=""font-size:60px;"">+</div>","null","html-keyboard-response","377","390312","0.0-3.0-0.187","","fixation","","",""
"1664","Set1/155b.jpg","79","image-keyboard-response","378","391988","0.0-3.0-1.187","","","Update","n","false"
"null","<div style=""font-size:60px;"">+</div>","null","html-keyboard-response","379","392503","0.0-3.0-0.188","","fixation","","",""
"850","Set1/104b.jpg","79","image-keyboard-response","380","393360","0.0-3.0-1.188","","","Update","o","true"
"null","<div style=""font-size:60px;"">+</div>","null","html-keyboard-response","381","393880","0.0-3.0-0.189","","fixation","","",""
"1180","Set1/052a.jpg","79","image-keyboard-response","382","395069","0.0-3.0-1.189","","","Repeat","n","false"
"null","<div style=""font-size:60px;"">+</div>","null","html-keyboard-response","383","395583","0.0-3.0-0.190","","fixation","","",""
"898","Set1/158b.jpg","79","image-keyboard-response","384","396486","0.0-3.0-1.190","","","Update","o","true"
"null","<div style=""font-size:60px;"">+</div>","null","html-keyboard-response","385","396989","0.0-3.0-0.191","","fixation","","",""
"1609","Set1/184a.jpg","78","image-keyboard-response","386","398604","0.0-3.0-1.191","","","Set_2_Only","n","true"
"null","<div style=""font-size:60px;"">+</div>","null","html-keyboard-response","387","399128","0.0-3.0-0.192","","fixation","","",""
"822","Set1/052a.jpg","79","image-keyboard-response","388","399955","0.0-3.0-1.192","","","Repeat","o","true"
"null","<div style=""font-size:60px;"">+</div>","null","html-keyboard-response","389","400477","0.0-3.0-0.193","","fixation","","",""
"1500","Set1/192a.jpg","79","image-keyboard-response","390","401985","0.0-3.0-1.193","","","Set_2_Only","n","false"
"null","<div style=""font-size:60px;"">+</div>","null","html-keyboard-response","391","402494","0.0-3.0-0.194","","fixation","","",""
"1364","Set1/155b.jpg","79","image-keyboard-response","392","403864","0.0-3.0-1.194","","","Update","o","true"
"null","<div style=""font-size:60px;"">+</div>","null","html-keyboard-response","393","404386","0.0-3.0-0.195","","fixation","","",""
"838","Set1/070a.jpg","79","image-keyboard-response","394","405231","0.0-3.0-1.195","","","Repeat","o","true"
"null","<div style=""font-size:60px;"">+</div>","null","html-keyboard-response","395","405762","0.0-3.0-0.196","","fixation","","",""
"null","Set1/048a.jpg","null","image-keyboard-response","396","415771","0.0-3.0-1.196","","","Repeat","n","false"
"null","<div style=""font-size:60px;"">+</div>","null","html-keyboard-response","397","416286","0.0-3.0-0.197","","fixation","","",""
"1418","Set1/122b.jpg","79","image-keyboard-response","398","417710","0.0-3.0-1.197","","","Update","n","false"
"null","<div style=""font-size:60px;"">+</div>","null","html-keyboard-response","399","418223","0.0-3.0-0.198","","fixation","","",""
"1222","Set1/156b.jpg","79","image-keyboard-response","400","419450","0.0-3.0-1.198","","","Update","n","false"
"null","<div style=""font-size:60px;"">+</div>","null","html-keyboard-response","401","419967","0.0-3.0-0.199","","fixation","","",""
"1190","Set1/097b.jpg","79","image-keyboard-response","402","421163","0.0-3.0-1.199","","","Update","n","false"
"null","<div style=""font-size:60px;"">+</div>","null","html-keyboard-response","403","421687","0.0-3.0-0.200","","fixation","","",""
"1974","Set1/118b.jpg","79","image-keyboard-response","404","423667","0.0-3.0-1.200","","","Update","n","false"
"null","<div style=""font-size:60px;"">+</div>","null","html-keyboard-response","405","424187","0.0-3.0-0.201","","fixation","","",""
"986","Set1/183a.jpg","79","image-keyboard-response","406","425183","0.0-3.0-1.201","","","Set_2_Only","o","true"
"null","<div style=""font-size:60px;"">+</div>","null","html-keyboard-response","407","425705","0.0-3.0-0.202","","fixation","","",""
"1391","Set1/107b.jpg","79","image-keyboard-response","408","427110","0.0-3.0-1.202","","","Update","n","false"
"null","<div style=""font-size:60px;"">+</div>","null","html-keyboard-response","409","427632","0.0-3.0-0.203","","fixation","","",""
"980","Set1/048a.jpg","79","image-keyboard-response","410","428627","0.0-3.0-1.203","","","Repeat","o","true"
"null","<div style=""font-size:60px;"">+</div>","null","html-keyboard-response","411","429141","0.0-3.0-0.204","","fixation","","",""
"1240","Set1/116b.jpg","79","image-keyboard-response","412","430391","0.0-3.0-1.204","","","Update","o","true"
"null","<div style=""font-size:60px;"">+</div>","null","html-keyboard-response","413","430906","0.0-3.0-0.205","","fixation","","",""
"1598","Set1/174a.jpg","78","image-keyboard-response","414","432513","0.0-3.0-1.205","","","Set_2_Only","n","true"
"null","<div style=""font-size:60px;"">+</div>","null","html-keyboard-response","415","433033","0.0-3.0-0.206","","fixation","","",""
"1804","Set1/190a.jpg","78","image-keyboard-response","416","434844","0.0-3.0-1.206","","","Set_2_Only","n","true"
"null","<div style=""font-size:60px;"">+</div>","null","html-keyboard-response","417","435375","0.0-3.0-0.207","","fixation","","",""
"1048","Set1/056a.jpg","79","image-keyboard-response","418","436432","0.0-3.0-1.207","","","Repeat","o","true"
"null","<div style=""font-size:60px;"">+</div>","null","html-keyboard-response","419","436955","0.0-3.0-0.208","","fixation","","",""
"1267","Set1/085a.jpg","79","image-keyboard-response","420","438231","0.0-3.0-1.208","","","Repeat","n","false"
"null","<div style=""font-size:60px;"">+</div>","null","html-keyboard-response","421","438752","0.0-3.0-0.209","","fixation","","",""
"915","Set1/182a.jpg","79","image-keyboard-response","422","439671","0.0-3.0-1.209","","","Set_2_Only","o","true"
"null","<div style=""font-size:60px;"">+</div>","null","html-keyboard-response","423","440190","0.0-3.0-0.210","","fixation","","",""
"2225","Set1/163a.jpg","78","image-keyboard-response","424","442423","0.0-3.0-1.210","","","Set_2_Only","n","true"
"null","<div style=""font-size:60px;"">+</div>","null","html-keyboard-response","425","442950","0.0-3.0-0.211","","fixation","","",""
"1757","Set1/189a.jpg","78","image-keyboard-response","426","444712","0.0-3.0-1.211","","","Set_2_Only","n","true"
"null","<div style=""font-size:60px;"">+</div>","null","html-keyboard-response","427","445223","0.0-3.0-0.212","","fixation","","",""
"1062","Set1/097b.jpg","79","image-keyboard-response","428","446326","0.0-3.0-1.212","","","Update","o","true"
"null","<div style=""font-size:60px;"">+</div>","null","html-keyboard-response","429","446847","0.0-3.0-0.213","","fixation","","",""
"930","Set1/113b.jpg","79","image-keyboard-response","430","447786","0.0-3.0-1.213","","","Update","o","true"
"null","<div style=""font-size:60px;"">+</div>","null","html-keyboard-response","431","448309","0.0-3.0-0.214","","fixation","","",""
"1040","Set1/174a.jpg","79","image-keyboard-response","432","449360","0.0-3.0-1.214","","","Set_2_Only","o","true"
"null","<div style=""font-size:60px;"">+</div>","null","html-keyboard-response","433","449875","0.0-3.0-0.215","","fixation","","",""
"1009","Set1/115b.jpg","79","image-keyboard-response","434","450891","0.0-3.0-1.215","","","Update","n","false"
"null","<div style=""font-size:60px;"">+</div>","null","html-keyboard-response","435","451408","0.0-3.0-0.216","","fixation","","",""
"904","Set1/124b.jpg","79","image-keyboard-response","436","452325","0.0-3.0-1.216","","","Update","o","true"
"null","<div style=""font-size:60px;"">+</div>","null","html-keyboard-response","437","452844","0.0-3.0-0.217","","fixation","","",""
"1285","Set1/186a.jpg","79","image-keyboard-response","438","454139","0.0-3.0-1.217","","","Set_2_Only","n","false"
"null","<div style=""font-size:60px;"">+</div>","null","html-keyboard-response","439","454658","0.0-3.0-0.218","","fixation","","",""
"1244","Set1/169a.jpg","79","image-keyboard-response","440","455910","0.0-3.0-1.218","","","Set_2_Only","n","false"
"null","<div style=""font-size:60px;"">+</div>","null","html-keyboard-response","441","456427","0.0-3.0-0.219","","fixation","","",""
"951","Set1/192a.jpg","79","image-keyboard-response","442","457392","0.0-3.0-1.219","","","Set_2_Only","o","true"
"null","<div style=""font-size:60px;"">+</div>","null","html-keyboard-response","443","457911","0.0-3.0-0.220","","fixation","","",""
"1076","Set1/163a.jpg","79","image-keyboard-response","444","459001","0.0-3.0-1.220","","","Set_2_Only","o","true"
"null","<div style=""font-size:60px;"">+</div>","null","html-keyboard-response","445","459521","0.0-3.0-0.221","","fixation","","",""
"811","Set1/118b.jpg","79","image-keyboard-response","446","460340","0.0-3.0-1.221","","","Update","o","true"
"null","<div style=""font-size:60px;"">+</div>","null","html-keyboard-response","447","460852","0.0-3.0-0.222","","fixation","","",""
"829","Set1/107b.jpg","79","image-keyboard-response","448","461690","0.0-3.0-1.222","","","Update","o","true"
"null","<div style=""font-size:60px;"">+</div>","null","html-keyboard-response","449","462209","0.0-3.0-0.223","","fixation","","",""
"1549","Set1/062a.jpg","79","image-keyboard-response","450","463767","0.0-3.0-1.223","","","Repeat","n","false"
"null","<div style=""font-size:60px;"">+</div>","null","html-keyboard-response","451","464289","0.0-3.0-0.224","","fixation","","",""
"944","Set1/156b.jpg","79","image-keyboard-response","452","465243","0.0-3.0-1.224","","","Update","o","true"
"null","<div style=""font-size:60px;"">+</div>","null","html-keyboard-response","453","465764","0.0-3.0-0.225","","fixation","","",""
"1025","Set1/186a.jpg","79","image-keyboard-response","454","466795","0.0-3.0-1.225","","","Set_2_Only","o","true"
"null","<div style=""font-size:60px;"">+</div>","null","html-keyboard-response","455","467309","0.0-3.0-0.226","","fixation","","",""
"969","Set1/045a.jpg","79","image-keyboard-response","456","468289","0.0-3.0-1.226","","","Repeat","o","true"
"null","<div style=""font-size:60px;"">+</div>","null","html-keyboard-response","457","468808","0.0-3.0-0.227","","fixation","","",""
"1100","Set1/057a.jpg","79","image-keyboard-response","458","469919","0.0-3.0-1.227","","","Repeat","o","true"
"null","<div style=""font-size:60px;"">+</div>","null","html-keyboard-response","459","470433","0.0-3.0-0.228","","fixation","","",""
"829","Set1/184a.jpg","79","image-keyboard-response","460","471277","0.0-3.0-1.228","","","Set_2_Only","o","true"
"null","<div style=""font-size:60px;"">+</div>","null","html-keyboard-response","461","471807","0.0-3.0-0.229","","fixation","","",""
"908","Set1/165a.jpg","79","image-keyboard-response","462","472723","0.0-3.0-1.229","","","Set_2_Only","o","true"
"null","<div style=""font-size:60px;"">+</div>","null","html-keyboard-response","463","473247","0.0-3.0-0.230","","fixation","","",""
"955","Set1/062a.jpg","79","image-keyboard-response","464","474215","0.0-3.0-1.230","","","Repeat","o","true"
"null","<div style=""font-size:60px;"">+</div>","null","html-keyboard-response","465","474733","0.0-3.0-0.231","","fixation","","",""
"907","Set1/152b.jpg","79","image-keyboard-response","466","475650","0.0-3.0-1.231","","","Update","o","true"
"null","<div style=""font-size:60px;"">+</div>","null","html-keyboard-response","467","476187","0.0-3.0-0.232","","fixation","","",""
"902","Set1/053a.jpg","79","image-keyboard-response","468","477097","0.0-3.0-1.232","","","Repeat","o","true"
"null","<div style=""font-size:60px;"">+</div>","null","html-keyboard-response","469","477622","0.0-3.0-0.233","","fixation","","",""
"871","Set1/190a.jpg","79","image-keyboard-response","470","478501","0.0-3.0-1.233","","","Set_2_Only","o","true"
"null","<div style=""font-size:60px;"">+</div>","null","html-keyboard-response","471","479016","0.0-3.0-0.234","","fixation","","",""
"926","Set1/082a.jpg","79","image-keyboard-response","472","479953","0.0-3.0-1.234","","","Repeat","o","true"
"null","<div style=""font-size:60px;"">+</div>","null","html-keyboard-response","473","480467","0.0-3.0-0.235","","fixation","","",""
"841","Set1/085a.jpg","79","image-keyboard-response","474","481317","0.0-3.0-1.235","","","Repeat","o","true"
"null","<div style=""font-size:60px;"">+</div>","null","html-keyboard-response","475","481836","0.0-3.0-0.236","","fixation","","",""
"955","Set1/169a.jpg","79","image-keyboard-response","476","482795","0.0-3.0-1.236","","","Set_2_Only","o","true"
"null","<div style=""font-size:60px;"">+</div>","null","html-keyboard-response","477","483316","0.0-3.0-0.237","","fixation","","",""
"880","Set1/122b.jpg","79","image-keyboard-response","478","484210","0.0-3.0-1.237","","","Update","o","true"
"null","<div style=""font-size:60px;"">+</div>","null","html-keyboard-response","479","484724","0.0-3.0-0.238","","fixation","","",""
"998","Set1/189a.jpg","79","image-keyboard-response","480","485729","0.0-3.0-1.238","","","Set_2_Only","o","true"
"null","<div style=""font-size:60px;"">+</div>","null","html-keyboard-response","481","486238","0.0-3.0-0.239","","fixation","","",""
"854","Set1/115b.jpg","79","image-keyboard-response","482","487100","0.0-3.0-1.239","","","Update","o","true"
"null","<div style=""font-size:60px;"">+</div>","null","html-keyboard-response","483","487621","0.0-3.0-0.240","","fixation","","",""
"1725","Set1/081a.jpg","78","image-keyboard-response","484","489353","0.0-3.0-1.240","","","Repeat","n","true"
"null","<div style=""font-size:60px;"">+</div>","null","html-keyboard-response","485","489869","0.0-3.0-0.241","","fixation","","",""
"1546","Set1/166a.jpg","78","image-keyboard-response","486","491424","0.0-3.0-1.241","","","Set_2_Only","n","true"
"null","<div style=""font-size:60px;"">+</div>","null","html-keyboard-response","487","491933","0.0-3.0-0.242","","fixation","","",""
"1653","Set1/111b.jpg","79","image-keyboard-response","488","493596","0.0-3.0-1.242","","","Update","n","false"
"null","<div style=""font-size:60px;"">+</div>","null","html-keyboard-response","489","494119","0.0-3.0-0.243","","fixation","","",""
"1245","Set1/063a.jpg","79","image-keyboard-response","490","495371","0.0-3.0-1.243","","","Repeat","n","false"
"null","<div style=""font-size:60px;"">+</div>","null","html-keyboard-response","491","495886","0.0-3.0-0.244","","fixation","","",""
"1318","Set1/127b.jpg","79","image-keyboard-response","492","497211","0.0-3.0-1.244","","","Update","n","false"
"null","<div style=""font-size:60px;"">+</div>","null","html-keyboard-response","493","497732","0.0-3.0-0.245","","fixation","","",""
"1558","Set1/077a.jpg","79","image-keyboard-response","494","499295","0.0-3.0-1.245","","","Repeat","n","false"
"null","<div style=""font-size:60px;"">+</div>","null","html-keyboard-response","495","499826","0.0-3.0-0.246","","fixation","","",""
"1659","Set1/117b.jpg","78","image-keyboard-response","496","501491","0.0-3.0-1.246","","","Update","n","true"
"null","<div style=""font-size:60px;"">+</div>","null","html-keyboard-response","497","502012","0.0-3.0-0.247","","fixation","","",""
"1611","Set1/110b.jpg","79","image-keyboard-response","498","503631","0.0-3.0-1.247","","","Update","n","false"
"null","<div style=""font-size:60px;"">+</div>","null","html-keyboard-response","499","504140","0.0-3.0-0.248","","fixation","","",""
"1500","Set1/137b.jpg","79","image-keyboard-response","500","505649","0.0-3.0-1.248","","","Update","n","false"
"null","<div style=""font-size:60px;"">+</div>","null","html-keyboard-response","501","506171","0.0-3.0-0.249","","fixation","","",""
"1375","Set1/146b.jpg","79","image-keyboard-response","502","507555","0.0-3.0-1.249","","","Update","n","false"
"null","<div style=""font-size:60px;"">+</div>","null","html-keyboard-response","503","508065","0.0-3.0-0.250","","fixation","","",""
"1499","Set1/164a.jpg","79","image-keyboard-response","504","509572","0.0-3.0-1.250","","","Set_2_Only","n","false"
"null","<div style=""font-size:60px;"">+</div>","null","html-keyboard-response","505","510096","0.0-3.0-0.251","","fixation","","",""
"2480","Set1/132b.jpg","78","image-keyboard-response","506","512582","0.0-3.0-1.251","","","Update","n","true"
"null","<div style=""font-size:60px;"">+</div>","null","html-keyboard-response","507","513109","0.0-3.0-0.252","","fixation","","",""
"1633","Set1/136b.jpg","79","image-keyboard-response","508","514752","0.0-3.0-1.252","","","Update","n","false"
"null","<div style=""font-size:60px;"">+</div>","null","html-keyboard-response","509","515276","0.0-3.0-0.253","","fixation","","",""
"1587","Set1/072a.jpg","79","image-keyboard-response","510","516870","0.0-3.0-1.253","","","Repeat","n","false"
"null","<div style=""font-size:60px;"">+</div>","null","html-keyboard-response","511","517392","0.0-3.0-0.254","","fixation","","",""
"1123","Set1/049a.jpg","79","image-keyboard-response","512","518525","0.0-3.0-1.254","","","Repeat","n","false"
"null","<div style=""font-size:60px;"">+</div>","null","html-keyboard-response","513","519034","0.0-3.0-0.255","","fixation","","",""
"1083","Set1/133b.jpg","79","image-keyboard-response","514","520127","0.0-3.0-1.255","","","Update","n","false"
"null","<div style=""font-size:60px;"">+</div>","null","html-keyboard-response","515","520644","0.0-3.0-0.256","","fixation","","",""
"1479","Set1/109b.jpg","79","image-keyboard-response","516","522132","0.0-3.0-1.256","","","Update","n","false"
"null","<div style=""font-size:60px;"">+</div>","null","html-keyboard-response","517","522657","0.0-3.0-0.257","","fixation","","",""
"1088","Set1/121b.jpg","78","image-keyboard-response","518","523755","0.0-3.0-1.257","","","Update","n","true"
"null","<div style=""font-size:60px;"">+</div>","null","html-keyboard-response","519","524290","0.0-3.0-0.258","","fixation","","",""
"1191","Set1/111b.jpg","79","image-keyboard-response","520","525494","0.0-3.0-1.258","","","Update","o","true"
"null","<div style=""font-size:60px;"">+</div>","null","html-keyboard-response","521","526007","0.0-3.0-0.259","","fixation","","",""
"1786","Set1/129b.jpg","79","image-keyboard-response","522","527799","0.0-3.0-1.259","","","Update","n","false"
"null","<div style=""font-size:60px;"">+</div>","null","html-keyboard-response","523","528320","0.0-3.0-0.260","","fixation","","",""
"null","Set1/088a.jpg","null","image-keyboard-response","524","538338","0.0-3.0-1.260","","","Repeat","n","false"
"null","<div style=""font-size:60px;"">+</div>","null","html-keyboard-response","525","538853","0.0-3.0-0.261","","fixation","","",""
"1273","Set1/136b.jpg","79","image-keyboard-response","526","540131","0.0-3.0-1.261","","","Update","o","true"
"null","<div style=""font-size:60px;"">+</div>","null","html-keyboard-response","527","540636","0.0-3.0-0.262","","fixation","","",""
"1890","Set1/088a.jpg","78","image-keyboard-response","528","542530","0.0-3.0-1.262","","","Repeat","o","false"
"null","<div style=""font-size:60px;"">+</div>","null","html-keyboard-response","529","543042","0.0-3.0-0.263","","fixation","","",""
"1383","Set1/125b.jpg","79","image-keyboard-response","530","544436","0.0-3.0-1.263","","","Update","n","false"
"null","<div style=""font-size:60px;"">+</div>","null","html-keyboard-response","531","544967","0.0-3.0-0.264","","fixation","","",""
"1001","Set1/054a.jpg","79","image-keyboard-response","532","545975","0.0-3.0-1.264","","","Repeat","n","false"
"null","<div style=""font-size:60px;"">+</div>","null","html-keyboard-response","533","546499","0.0-3.0-0.265","","fixation","","",""
"1416","Set1/099b.jpg","79","image-keyboard-response","534","547924","0.0-3.0-1.265","","","Update","n","false"
"null","<div style=""font-size:60px;"">+</div>","null","html-keyboard-response","535","548450","0.0-3.0-0.266","","fixation","","",""
"1066","Set1/166a.jpg","79","image-keyboard-response","536","549529","0.0-3.0-1.266","","","Set_2_Only","o","true"
"null","<div style=""font-size:60px;"">+</div>","null","html-keyboard-response","537","550043","0.0-3.0-0.267","","fixation","","",""
"1395","Set1/093a.jpg","78","image-keyboard-response","538","551446","0.0-3.0-1.267","","","Repeat","n","true"
"null","<div style=""font-size:60px;"">+</div>","null","html-keyboard-response","539","551966","0.0-3.0-0.268","","fixation","","",""
"1339","Set1/060a.jpg","79","image-keyboard-response","540","553312","0.0-3.0-1.268","","","Repeat","n","false"
"null","<div style=""font-size:60px;"">+</div>","null","html-keyboard-response","541","553842","0.0-3.0-0.269","","fixation","","",""
"1046","Set1/110b.jpg","79","image-keyboard-response","542","554900","0.0-3.0-1.269","","","Update","o","true"
"null","<div style=""font-size:60px;"">+</div>","null","html-keyboard-response","543","555420","0.0-3.0-0.270","","fixation","","",""
"1252","Set1/093a.jpg","79","image-keyboard-response","544","556680","0.0-3.0-1.270","","","Repeat","o","true"
"null","<div style=""font-size:60px;"">+</div>","null","html-keyboard-response","545","557188","0.0-3.0-0.271","","fixation","","",""
"1022","Set1/180a.jpg","79","image-keyboard-response","546","558216","0.0-3.0-1.271","","","Set_2_Only","n","false"
"null","<div style=""font-size:60px;"">+</div>","null","html-keyboard-response","547","558729","0.0-3.0-0.272","","fixation","","",""
"1584","Set1/120b.jpg","79","image-keyboard-response","548","560321","0.0-3.0-1.272","","","Update","n","false"
"null","<div style=""font-size:60px;"">+</div>","null","html-keyboard-response","549","560855","0.0-3.0-0.273","","fixation","","",""
"1349","Set1/178a.jpg","78","image-keyboard-response","550","562211","0.0-3.0-1.273","","","Set_2_Only","n","true"
"null","<div style=""font-size:60px;"">+</div>","null","html-keyboard-response","551","562731","0.0-3.0-0.274","","fixation","","",""
"1402","Set1/079a.jpg","79","image-keyboard-response","552","564139","0.0-3.0-1.274","","","Repeat","n","false"
"null","<div style=""font-size:60px;"">+</div>","null","html-keyboard-response","553","564661","0.0-3.0-0.275","","fixation","","",""
"1462","Set1/151b.jpg","79","image-keyboard-response","554","566132","0.0-3.0-1.275","","","Update","n","false"
"null","<div style=""font-size:60px;"">+</div>","null","html-keyboard-response","555","566643","0.0-3.0-0.276","","fixation","","",""
"1461","Set1/181a.jpg","78","image-keyboard-response","556","568113","0.0-3.0-1.276","","","Set_2_Only","n","true"
"null","<div style=""font-size:60px;"">+</div>","null","html-keyboard-response","557","568639","0.0-3.0-0.277","","fixation","","",""
"1003","Set1/099b.jpg","79","image-keyboard-response","558","569648","0.0-3.0-1.277","","","Update","o","true"
"null","<div style=""font-size:60px;"">+</div>","null","html-keyboard-response","559","570175","0.0-3.0-0.278","","fixation","","",""
"1459","Set1/102b.jpg","78","image-keyboard-response","560","571643","0.0-3.0-1.278","","","Update","n","true"
"null","<div style=""font-size:60px;"">+</div>","null","html-keyboard-response","561","572159","0.0-3.0-0.279","","fixation","","",""
"1534","Set1/167a.jpg","78","image-keyboard-response","562","573701","0.0-3.0-1.279","","","Set_2_Only","n","true"
"null","<div style=""font-size:60px;"">+</div>","null","html-keyboard-response","563","574206","0.0-3.0-0.280","","fixation","","",""
"1106","Set1/102b.jpg","79","image-keyboard-response","564","575322","0.0-3.0-1.280","","","Update","o","true"
"null","<div style=""font-size:60px;"">+</div>","null","html-keyboard-response","565","575833","0.0-3.0-0.281","","fixation","","",""
"2366","Set1/092a.jpg","78","image-keyboard-response","566","578210","0.0-3.0-1.281","","","Repeat","n","true"
"null","<div style=""font-size:60px;"">+</div>","null","html-keyboard-response","567","578724","0.0-3.0-0.282","","fixation","","",""
"1316","Set1/081a.jpg","79","image-keyboard-response","568","580050","0.0-3.0-1.282","","","Repeat","o","true"
"null","<div style=""font-size:60px;"">+</div>","null","html-keyboard-response","569","580568","0.0-3.0-0.283","","fixation","","",""
"1166","Set1/120b.jpg","79","image-keyboard-response","570","581747","0.0-3.0-1.283","","","Update","o","true"
"null","<div style=""font-size:60px;"">+</div>","null","html-keyboard-response","571","582255","0.0-3.0-0.284","","fixation","","",""
"1099","Set1/076a.jpg","79","image-keyboard-response","572","583361","0.0-3.0-1.284","","","Repeat","n","false"
"null","<div style=""font-size:60px;"">+</div>","null","html-keyboard-response","573","583880","0.0-3.0-0.285","","fixation","","",""
"1195","Set1/033a.jpg","79","image-keyboard-response","574","585085","0.0-3.0-1.285","","","Repeat","n","false"
"null","<div style=""font-size:60px;"">+</div>","null","html-keyboard-response","575","585600","0.0-3.0-0.286","","fixation","","",""
"925","Set1/125b.jpg","79","image-keyboard-response","576","586534","0.0-3.0-1.286","","","Update","o","true"
"null","<div style=""font-size:60px;"">+</div>","null","html-keyboard-response","577","587069","0.0-3.0-0.287","","fixation","","",""
"965","Set1/127b.jpg","79","image-keyboard-response","578","588052","0.0-3.0-1.287","","","Update","o","true"
"null","<div style=""font-size:60px;"">+</div>","null","html-keyboard-response","579","588587","0.0-3.0-0.288","","fixation","","",""
"948","Set1/092a.jpg","79","image-keyboard-response","580","589542","0.0-3.0-1.288","","","Repeat","o","true"
"null","<div style=""font-size:60px;"">+</div>","null","html-keyboard-response","581","590056","0.0-3.0-0.289","","fixation","","",""
"1047","Set1/181a.jpg","79","image-keyboard-response","582","591113","0.0-3.0-1.289","","","Set_2_Only","o","true"
"null","<div style=""font-size:60px;"">+</div>","null","html-keyboard-response","583","591650","0.0-3.0-0.290","","fixation","","",""
"1633","Set1/086a.jpg","79","image-keyboard-response","584","593291","0.0-3.0-1.290","","","Repeat","n","false"
"null","<div style=""font-size:60px;"">+</div>","null","html-keyboard-response","585","593808","0.0-3.0-0.291","","fixation","","",""
"990","Set1/109b.jpg","79","image-keyboard-response","586","594809","0.0-3.0-1.291","","","Update","o","true"
"null","<div style=""font-size:60px;"">+</div>","null","html-keyboard-response","587","595324","0.0-3.0-0.292","","fixation","","",""
"1074","Set1/167a.jpg","79","image-keyboard-response","588","596405","0.0-3.0-1.292","","","Set_2_Only","o","true"
"null","<div style=""font-size:60px;"">+</div>","null","html-keyboard-response","589","596919","0.0-3.0-0.293","","fixation","","",""
"913","Set1/129b.jpg","79","image-keyboard-response","590","597838","0.0-3.0-1.293","","","Update","o","true"
"null","<div style=""font-size:60px;"">+</div>","null","html-keyboard-response","591","598357","0.0-3.0-0.294","","fixation","","",""
"844","Set1/180a.jpg","79","image-keyboard-response","592","599206","0.0-3.0-1.294","","","Set_2_Only","o","true"
"null","<div style=""font-size:60px;"">+</div>","null","html-keyboard-response","593","599719","0.0-3.0-0.295","","fixation","","",""
"1152","Set1/121b.jpg","79","image-keyboard-response","594","600880","0.0-3.0-1.295","","","Update","o","true"
"null","<div style=""font-size:60px;"">+</div>","null","html-keyboard-response","595","601392","0.0-3.0-0.296","","fixation","","",""
"957","Set1/178a.jpg","79","image-keyboard-response","596","602355","0.0-3.0-1.296","","","Set_2_Only","o","true"
"null","<div style=""font-size:60px;"">+</div>","null","html-keyboard-response","597","602877","0.0-3.0-0.297","","fixation","","",""
"1637","Set1/094a.jpg","78","image-keyboard-response","598","604521","0.0-3.0-1.297","","","Repeat","n","true"
"null","<div style=""font-size:60px;"">+</div>","null","html-keyboard-response","599","605029","0.0-3.0-0.298","","fixation","","",""
"1137","Set1/137b.jpg","79","image-keyboard-response","600","606178","0.0-3.0-1.298","","","Update","o","true"
"null","<div style=""font-size:60px;"">+</div>","null","html-keyboard-response","601","606685","0.0-3.0-0.299","","fixation","","",""
"985","Set1/060a.jpg","79","image-keyboard-response","602","607675","0.0-3.0-1.299","","","Repeat","o","true"
"null","<div style=""font-size:60px;"">+</div>","null","html-keyboard-response","603","608202","0.0-3.0-0.300","","fixation","","",""
"898","Set1/133b.jpg","79","image-keyboard-response","604","609118","0.0-3.0-1.300","","","Update","o","true"
"null","<div style=""font-size:60px;"">+</div>","null","html-keyboard-response","605","609640","0.0-3.0-0.301","","fixation","","",""
"958","Set1/164a.jpg","79","image-keyboard-response","606","610606","0.0-3.0-1.301","","","Set_2_Only","o","true"
"null","<div style=""font-size:60px;"">+</div>","null","html-keyboard-response","607","611125","0.0-3.0-0.302","","fixation","","",""
"845","Set1/054a.jpg","79","image-keyboard-response","608","611979","0.0-3.0-1.302","","","Repeat","o","true"
"null","<div style=""font-size:60px;"">+</div>","null","html-keyboard-response","609","612501","0.0-3.0-0.303","","fixation","","",""
"1040","Set1/117b.jpg","79","image-keyboard-response","610","613550","0.0-3.0-1.303","","","Update","o","true"
"null","<div style=""font-size:60px;"">+</div>","null","html-keyboard-response","611","614078","0.0-3.0-0.304","","fixation","","",""
"863","Set1/049a.jpg","79","image-keyboard-response","612","614951","0.0-3.0-1.304","","","Repeat","o","true"
"null","<div style=""font-size:60px;"">+</div>","null","html-keyboard-response","613","615470","0.0-3.0-0.305","","fixation","","",""
"1024","Set1/132b.jpg","79","image-keyboard-response","614","616504","0.0-3.0-1.305","","","Update","o","true"
"null","<div style=""font-size:60px;"">+</div>","null","html-keyboard-response","615","617026","0.0-3.0-0.306","","fixation","","",""
"971","Set1/151b.jpg","79","image-keyboard-response","616","618006","0.0-3.0-1.306","","","Update","o","true"
"null","<div style=""font-size:60px;"">+</div>","null","html-keyboard-response","617","618533","0.0-3.0-0.307","","fixation","","",""
"1124","Set1/086a.jpg","79","image-keyboard-response","618","619662","0.0-3.0-1.307","","","Repeat","o","true"
"null","<div style=""font-size:60px;"">+</div>","null","html-keyboard-response","619","620175","0.0-3.0-0.308","","fixation","","",""
"1861","Set1/160b.jpg","78","image-keyboard-response","620","622047","0.0-3.0-1.308","","","Update","n","true"
"null","<div style=""font-size:60px;"">+</div>","null","html-keyboard-response","621","622581","0.0-3.0-0.309","","fixation","","",""
"924","Set1/094a.jpg","79","image-keyboard-response","622","623520","0.0-3.0-1.309","","","Repeat","o","true"
"null","<div style=""font-size:60px;"">+</div>","null","html-keyboard-response","623","624050","0.0-3.0-0.310","","fixation","","",""
"1098","Set1/146b.jpg","79","image-keyboard-response","624","625158","0.0-3.0-1.310","","","Update","o","true"
"null","<div style=""font-size:60px;"">+</div>","null","html-keyboard-response","625","625680","0.0-3.0-0.311","","fixation","","",""
"1795","Set1/160b.jpg","79","image-keyboard-response","626","627479","0.0-3.0-1.311","","","Update","o","true"
"null","<div style=""font-size:60px;"">+</div>","null","html-keyboard-response","627","628001","0.0-3.0-0.312","","fixation","","",""
"933","Set1/072a.jpg","79","image-keyboard-response","628","628942","0.0-3.0-1.312","","","Repeat","o","true"
"null","<div style=""font-size:60px;"">+</div>","null","html-keyboard-response","629","629453","0.0-3.0-0.313","","fixation","","",""
"885","Set1/076a.jpg","79","image-keyboard-response","630","630349","0.0-3.0-1.313","","","Repeat","o","true"
"null","<div style=""font-size:60px;"">+</div>","null","html-keyboard-response","631","630857","0.0-3.0-0.314","","fixation","","",""
"867","Set1/079a.jpg","79","image-keyboard-response","632","631734","0.0-3.0-1.314","","","Repeat","o","true"
"null","<div style=""font-size:60px;"">+</div>","null","html-keyboard-response","633","632252","0.0-3.0-0.315","","fixation","","",""
"956","Set1/033a.jpg","79","image-keyboard-response","634","633219","0.0-3.0-1.315","","","Repeat","o","true"
"null","<div style=""font-size:60px;"">+</div>","null","html-keyboard-response","635","633737","0.0-3.0-0.316","","fixation","","",""
"1371","Set1/051a.jpg","79","image-keyboard-response","636","635118","0.0-3.0-1.316","","","Repeat","n","false"
"null","<div style=""font-size:60px;"">+</div>","null","html-keyboard-response","637","635628","0.0-3.0-0.317","","fixation","","",""
"977","Set1/077a.jpg","79","image-keyboard-response","638","636618","0.0-3.0-1.317","","","Repeat","o","true"
"null","<div style=""font-size:60px;"">+</div>","null","html-keyboard-response","639","637136","0.0-3.0-0.318","","fixation","","",""
"853","Set1/051a.jpg","79","image-keyboard-response","640","637998","0.0-3.0-1.318","","","Repeat","o","true"
"null","<div style=""font-size:60px;"">+</div>","null","html-keyboard-response","641","638535","0.0-3.0-0.319","","fixation","","",""
"886","Set1/063a.jpg","79","image-keyboard-response","642","639431","0.0-3.0-1.319","","","Repeat","o","true"
