"rt","stimulus","key_press","trial_type","trial_index","time_elapsed","internal_node_id","responses","test_part","stim_type","correct_response","correct"
"2874","Press any key to begin.","86","html-keyboard-response","0","2891","0.0-0.0","","","","",""
"12355","","","survey-text","1","15258","0.0-1.0","{""Q0"":""\""Set2201225\"""",""Q1"":""\""Set2201225\""""}","","","",""
"10356","<p>In this experiment you will see a series of everyday objects presented one at a time at the center of the screen. Each image will be presented twice.</p><p>The first time you see the image, press the N key to indicat that it is a NEW image. The second time you see the image, press the O key to indicate that it is an OLD image.</p><p>Some of the images will be repeats from the first session of this task you did yesterday. I want you to treat those images as 'OLD' if you remember seeing them before. Some of the images will be very similar but not identical to an image that you have seen in the previous set. I want you to treat those images as 'NEW' the first time you see them and 'OLD' the second time.</p><div style='width: 700px;'></div><p>Press any key to begin.</p>","68","html-keyboard-response","2","25620","0.0-2.0","","","","",""
"null","<div style=""font-size:60px;"">+</div>","null","html-keyboard-response","3","28180","0.0-3.0-0.0","","fixation","","",""
"2547","Set1/037a.jpg","79","image-keyboard-response","4","30735","0.0-3.0-1.0","","","Repeat","n","false"
"null","<div style=""font-size:60px;"">+</div>","null","html-keyboard-response","5","31273","0.0-3.0-0.1","","fixation","","",""
"3484","Set1/095a.jpg","78","image-keyboard-response","6","34763","0.0-3.0-1.1","","","Repeat","n","true"
"null","<div style=""font-size:60px;"">+</div>","null","html-keyboard-response","7","35290","0.0-3.0-0.2","","fixation","","",""
"null","Set1/080a.jpg","null","image-keyboard-response","8","45323","0.0-3.0-1.2","","","Repeat","n","false"
"null","<div style=""font-size:60px;"">+</div>","null","html-keyboard-response","9","45851","0.0-3.0-0.3","","fixation","","",""
"null","Set1/142b.jpg","null","image-keyboard-response","10","55884","0.0-3.0-1.3","","","Update","n","false"
"null","<div style=""font-size:60px;"">+</div>","null","html-keyboard-response","11","56414","0.0-3.0-0.4","","fixation","","",""
"4406","Set1/179a.jpg","78","image-keyboard-response","12","60834","0.0-3.0-1.4","","","Set_2_Only","n","true"
"null","<div style=""font-size:60px;"">+</div>","null","html-keyboard-response","13","61353","0.0-3.0-0.5","","fixation","","",""
"null","Set1/039a.jpg","null","image-keyboard-response","14","71368","0.0-3.0-1.5","","","Repeat","n","false"
"null","<div style=""font-size:60px;"">+</div>","null","html-keyboard-response","15","71898","0.0-3.0-0.6","","fixation","","",""
"2200","Set1/172a.jpg","78","image-keyboard-response","16","74102","0.0-3.0-1.6","","","Set_2_Only","n","true"
"null","<div style=""font-size:60px;"">+</div>","null","html-keyboard-response","17","74616","0.0-3.0-0.7","","fixation","","",""
"null","Set1/075a.jpg","null","image-keyboard-response","18","84624","0.0-3.0-1.7","","","Repeat","n","false"
"null","<div style=""font-size:60px;"">+</div>","null","html-keyboard-response","19","85150","0.0-3.0-0.8","","fixation","","",""
"4236","Set1/090a.jpg","78","image-keyboard-response","20","89400","0.0-3.0-1.8","","","Repeat","n","true"
"null","<div style=""font-size:60px;"">+</div>","null","html-keyboard-response","21","89915","0.0-3.0-0.9","","fixation","","",""
"null","Set1/148b.jpg","null","image-keyboard-response","22","99930","0.0-3.0-1.9","","","Update","n","false"
"null","<div style=""font-size:60px;"">+</div>","null","html-keyboard-response","23","100461","0.0-3.0-0.10","","fixation","","",""
"1622","Set1/172a.jpg","79","image-keyboard-response","24","102089","0.0-3.0-1.10","","","Set_2_Only","o","true"
"null","<div style=""font-size:60px;"">+</div>","null","html-keyboard-response","25","102618","0.0-3.0-0.11","","fixation","","",""
"null","Set1/035a.jpg","null","image-keyboard-response","26","112650","0.0-3.0-1.11","","","Repeat","n","false"
"null","<div style=""font-size:60px;"">+</div>","null","html-keyboard-response","27","113185","0.0-3.0-0.12","","fixation","","",""
"2999","Set1/170a.jpg","78","image-keyboard-response","28","116190","0.0-3.0-1.12","","","Set_2_Only","n","true"
"null","<div style=""font-size:60px;"">+</div>","null","html-keyboard-response","29","116712","0.0-3.0-0.13","","fixation","","",""
"1244","Set1/179a.jpg","79","image-keyboard-response","30","117963","0.0-3.0-1.13","","","Set_2_Only","o","true"
"null","<div style=""font-size:60px;"">+</div>","null","html-keyboard-response","31","118493","0.0-3.0-0.14","","fixation","","",""
"null","Set1/153b.jpg","null","image-keyboard-response","32","128525","0.0-3.0-1.14","","","Update","n","false"
"null","<div style=""font-size:60px;"">+</div>","null","html-keyboard-response","33","129055","0.0-3.0-0.15","","fixation","","",""
"2560","Set1/083a.jpg","79","image-keyboard-response","34","131622","0.0-3.0-1.15","","","Repeat","n","false"
"null","<div style=""font-size:60px;"">+</div>","null","html-keyboard-response","35","132147","0.0-3.0-0.16","","fixation","","",""
"3390","Set1/126b.jpg","78","image-keyboard-response","36","135541","0.0-3.0-1.16","","","Update","n","true"
"null","<div style=""font-size:60px;"">+</div>","null","html-keyboard-response","37","136071","0.0-3.0-0.17","","fixation","","",""
"2346","Set1/135b.jpg","79","image-keyboard-response","38","138423","0.0-3.0-1.17","","","Update","n","false"
"null","<div style=""font-size:60px;"">+</div>","null","html-keyboard-response","39","138944","0.0-3.0-0.18","","fixation","","",""
"null","Set1/108b.jpg","null","image-keyboard-response","40","148962","0.0-3.0-1.18","","","Update","n","false"
"null","<div style=""font-size:60px;"">+</div>","null","html-keyboard-response","41","149476","0.0-3.0-0.19","","fixation","","",""
"1535","Set1/142b.jpg","79","image-keyboard-response","42","151014","0.0-3.0-1.19","","","Update","o","true"
"null","<div style=""font-size:60px;"">+</div>","null","html-keyboard-response","43","151539","0.0-3.0-0.20","","fixation","","",""
"3099","Set1/138b.jpg","79","image-keyboard-response","44","154646","0.0-3.0-1.20","","","Update","n","false"
"null","<div style=""font-size:60px;"">+</div>","null","html-keyboard-response","45","155163","0.0-3.0-0.21","","fixation","","",""
"null","Set1/171a.jpg","null","image-keyboard-response","46","165178","0.0-3.0-1.21","","","Set_2_Only","n","false"
"null","<div style=""font-size:60px;"">+</div>","null","html-keyboard-response","47","165694","0.0-3.0-0.22","","fixation","","",""
"1372","Set1/148b.jpg","79","image-keyboard-response","48","167070","0.0-3.0-1.22","","","Update","o","true"
"null","<div style=""font-size:60px;"">+</div>","null","html-keyboard-response","49","167600","0.0-3.0-0.23","","fixation","","",""
"1069","Set1/083a.jpg","79","image-keyboard-response","50","168677","0.0-3.0-1.23","","","Repeat","o","true"
"null","<div style=""font-size:60px;"">+</div>","null","html-keyboard-response","51","169197","0.0-3.0-0.24","","fixation","","",""
"null","Set1/141b.jpg","null","image-keyboard-response","52","179228","0.0-3.0-1.24","","","Update","n","false"
"null","<div style=""font-size:60px;"">+</div>","null","html-keyboard-response","53","179743","0.0-3.0-0.25","","fixation","","",""
"2258","Set1/123b.jpg","78","image-keyboard-response","54","182009","0.0-3.0-1.25","","","Update","n","true"
"null","<div style=""font-size:60px;"">+</div>","null","html-keyboard-response","55","182540","0.0-3.0-0.26","","fixation","","",""
"1629","Set1/145b.jpg","78","image-keyboard-response","56","184176","0.0-3.0-1.26","","","Update","n","true"
"null","<div style=""font-size:60px;"">+</div>","null","html-keyboard-response","57","184711","0.0-3.0-0.27","","fixation","","",""
"null","Set1/175a.jpg","null","image-keyboard-response","58","194743","0.0-3.0-1.27","","","Set_2_Only","n","false"
"null","<div style=""font-size:60px;"">+</div>","null","html-keyboard-response","59","195274","0.0-3.0-0.28","","fixation","","",""
"4342","Set1/177a.jpg","79","image-keyboard-response","60","199622","0.0-3.0-1.28","","","Set_2_Only","n","false"
"null","<div style=""font-size:60px;"">+</div>","null","html-keyboard-response","61","200149","0.0-3.0-0.29","","fixation","","",""
"null","Set1/119b.jpg","null","image-keyboard-response","62","210181","0.0-3.0-1.29","","","Update","n","false"
"null","<div style=""font-size:60px;"">+</div>","null","html-keyboard-response","63","210712","0.0-3.0-0.30","","fixation","","",""
"1149","Set1/177a.jpg","79","image-keyboard-response","64","211865","0.0-3.0-1.30","","","Set_2_Only","o","true"
"null","<div style=""font-size:60px;"">+</div>","null","html-keyboard-response","65","212384","0.0-3.0-0.31","","fixation","","",""
"null","Set1/038a.jpg","null","image-keyboard-response","66","222414","0.0-3.0-1.31","","","Repeat","n","false"
"null","<div style=""font-size:60px;"">+</div>","null","html-keyboard-response","67","222929","0.0-3.0-0.32","","fixation","","",""
"1129","Set1/035a.jpg","79","image-keyboard-response","68","224065","0.0-3.0-1.32","","","Repeat","o","true"
"null","<div style=""font-size:60px;"">+</div>","null","html-keyboard-response","69","224587","0.0-3.0-0.33","","fixation","","",""
"1143","Set1/171a.jpg","78","image-keyboard-response","70","225737","0.0-3.0-1.33","","","Set_2_Only","o","false"
"null","<div style=""font-size:60px;"">+</div>","null","html-keyboard-response","71","226273","0.0-3.0-0.34","","fixation","","",""
"3497","Set1/157b.jpg","78","image-keyboard-response","72","229778","0.0-3.0-1.34","","","Update","n","true"
"null","<div style=""font-size:60px;"">+</div>","null","html-keyboard-response","73","230305","0.0-3.0-0.35","","fixation","","",""
"1208","Set1/170a.jpg","79","image-keyboard-response","74","231519","0.0-3.0-1.35","","","Set_2_Only","o","true"
"null","<div style=""font-size:60px;"">+</div>","null","html-keyboard-response","75","232055","0.0-3.0-0.36","","fixation","","",""
"1045","Set1/135b.jpg","79","image-keyboard-response","76","233108","0.0-3.0-1.36","","","Update","o","true"
"null","<div style=""font-size:60px;"">+</div>","null","html-keyboard-response","77","233618","0.0-3.0-0.37","","fixation","","",""
"953","Set1/090a.jpg","79","image-keyboard-response","78","234578","0.0-3.0-1.37","","","Repeat","o","true"
"null","<div style=""font-size:60px;"">+</div>","null","html-keyboard-response","79","235103","0.0-3.0-0.38","","fixation","","",""
"995","Set1/095a.jpg","79","image-keyboard-response","80","236104","0.0-3.0-1.38","","","Repeat","o","true"
"null","<div style=""font-size:60px;"">+</div>","null","html-keyboard-response","81","236633","0.0-3.0-0.39","","fixation","","",""
"1222","Set1/108b.jpg","79","image-keyboard-response","82","237862","0.0-3.0-1.39","","","Update","o","true"
"null","<div style=""font-size:60px;"">+</div>","null","html-keyboard-response","83","238384","0.0-3.0-0.40","","fixation","","",""
"3569","Set1/040a.jpg","79","image-keyboard-response","84","241959","0.0-3.0-1.40","","","Repeat","n","false"
"null","<div style=""font-size:60px;"">+</div>","null","html-keyboard-response","85","242492","0.0-3.0-0.41","","fixation","","",""
"3503","Set1/058a.jpg","79","image-keyboard-response","86","246002","0.0-3.0-1.41","","","Repeat","n","false"
"null","<div style=""font-size:60px;"">+</div>","null","html-keyboard-response","87","246523","0.0-3.0-0.42","","fixation","","",""
"2887","Set1/140b.jpg","79","image-keyboard-response","88","249419","0.0-3.0-1.42","","","Update","n","false"
"null","<div style=""font-size:60px;"">+</div>","null","html-keyboard-response","89","249946","0.0-3.0-0.43","","fixation","","",""
"1097","Set1/037a.jpg","79","image-keyboard-response","90","251048","0.0-3.0-1.43","","","Repeat","o","true"
"null","<div style=""font-size:60px;"">+</div>","null","html-keyboard-response","91","251570","0.0-3.0-0.44","","fixation","","",""
"1176","Set1/153b.jpg","78","image-keyboard-response","92","252753","0.0-3.0-1.44","","","Update","o","false"
"null","<div style=""font-size:60px;"">+</div>","null","html-keyboard-response","93","253273","0.0-3.0-0.45","","fixation","","",""
"null","Set1/168a.jpg","null","image-keyboard-response","94","263305","0.0-3.0-1.45","","","Set_2_Only","n","false"
"null","<div style=""font-size:60px;"">+</div>","null","html-keyboard-response","95","263836","0.0-3.0-0.46","","fixation","","",""
"3332","Set1/091a.jpg","79","image-keyboard-response","96","267172","0.0-3.0-1.46","","","Repeat","n","false"
"null","<div style=""font-size:60px;"">+</div>","null","html-keyboard-response","97","267696","0.0-3.0-0.47","","fixation","","",""
"878","Set1/119b.jpg","79","image-keyboard-response","98","268580","0.0-3.0-1.47","","","Update","o","true"
"null","<div style=""font-size:60px;"">+</div>","null","html-keyboard-response","99","269101","0.0-3.0-0.48","","fixation","","",""
"918","Set1/168a.jpg","78","image-keyboard-response","100","270030","0.0-3.0-1.48","","","Set_2_Only","o","false"
"null","<div style=""font-size:60px;"">+</div>","null","html-keyboard-response","101","270554","0.0-3.0-0.49","","fixation","","",""
"984","Set1/038a.jpg","78","image-keyboard-response","102","271546","0.0-3.0-1.49","","","Repeat","o","false"
"null","<div style=""font-size:60px;"">+</div>","null","html-keyboard-response","103","272071","0.0-3.0-0.50","","fixation","","",""
"null","Set1/154b.jpg","null","image-keyboard-response","104","282087","0.0-3.0-1.50","","","Update","n","false"
"null","<div style=""font-size:60px;"">+</div>","null","html-keyboard-response","105","282617","0.0-3.0-0.51","","fixation","","",""
"null","Set1/067a.jpg","null","image-keyboard-response","106","292648","0.0-3.0-1.51","","","Repeat","n","false"
"null","<div style=""font-size:60px;"">+</div>","null","html-keyboard-response","107","293179","0.0-3.0-0.52","","fixation","","",""
"1380","Set1/080a.jpg","79","image-keyboard-response","108","294567","0.0-3.0-1.52","","","Repeat","o","true"
"null","<div style=""font-size:60px;"">+</div>","null","html-keyboard-response","109","295086","0.0-3.0-0.53","","fixation","","",""
"990","Set1/154b.jpg","79","image-keyboard-response","110","296083","0.0-3.0-1.53","","","Update","o","true"
"null","<div style=""font-size:60px;"">+</div>","null","html-keyboard-response","111","296617","0.0-3.0-0.54","","fixation","","",""
"3062","Set1/087a.jpg","79","image-keyboard-response","112","299686","0.0-3.0-1.54","","","Repeat","n","false"
"null","<div style=""font-size:60px;"">+</div>","null","html-keyboard-response","113","300211","0.0-3.0-0.55","","fixation","","",""
"2372","Set1/149b.jpg","79","image-keyboard-response","114","302590","0.0-3.0-1.55","","","Update","n","false"
"null","<div style=""font-size:60px;"">+</div>","null","html-keyboard-response","115","303117","0.0-3.0-0.56","","fixation","","",""
"2458","Set1/173a.jpg","78","image-keyboard-response","116","305582","0.0-3.0-1.56","","","Set_2_Only","n","true"
"null","<div style=""font-size:60px;"">+</div>","null","html-keyboard-response","117","306116","0.0-3.0-0.57","","fixation","","",""
"1020","Set1/040a.jpg","79","image-keyboard-response","118","307142","0.0-3.0-1.57","","","Repeat","o","true"
"null","<div style=""font-size:60px;"">+</div>","null","html-keyboard-response","119","307664","0.0-3.0-0.58","","fixation","","",""
"768","Set1/058a.jpg","79","image-keyboard-response","120","308439","0.0-3.0-1.58","","","Repeat","o","true"
"null","<div style=""font-size:60px;"">+</div>","null","html-keyboard-response","121","308947","0.0-3.0-0.59","","fixation","","",""
"1035","Set1/173a.jpg","79","image-keyboard-response","122","309989","0.0-3.0-1.59","","","Set_2_Only","o","true"
"null","<div style=""font-size:60px;"">+</div>","null","html-keyboard-response","123","310523","0.0-3.0-0.60","","fixation","","",""
"900","Set1/140b.jpg","79","image-keyboard-response","124","311430","0.0-3.0-1.60","","","Update","o","true"
"null","<div style=""font-size:60px;"">+</div>","null","html-keyboard-response","125","311961","0.0-3.0-0.61","","fixation","","",""
"2704","Set1/187a.jpg","78","image-keyboard-response","126","314671","0.0-3.0-1.61","","","Set_2_Only","n","true"
"null","<div style=""font-size:60px;"">+</div>","null","html-keyboard-response","127","315195","0.0-3.0-0.62","","fixation","","",""
"923","Set1/067a.jpg","79","image-keyboard-response","128","316125","0.0-3.0-1.62","","","Repeat","o","true"
"null","<div style=""font-size:60px;"">+</div>","null","html-keyboard-response","129","316649","0.0-3.0-0.63","","fixation","","",""
"825","Set1/126b.jpg","79","image-keyboard-response","130","317480","0.0-3.0-1.63","","","Update","o","true"
"null","<div style=""font-size:60px;"">+</div>","null","html-keyboard-response","131","318007","0.0-3.0-0.64","","fixation","","",""
"2745","Set1/188a.jpg","78","image-keyboard-response","132","320760","0.0-3.0-1.64","","","Set_2_Only","n","true"
"null","<div style=""font-size:60px;"">+</div>","null","html-keyboard-response","133","321289","0.0-3.0-0.65","","fixation","","",""
"911","Set1/145b.jpg","79","image-keyboard-response","134","322207","0.0-3.0-1.65","","","Update","o","true"
"null","<div style=""font-size:60px;"">+</div>","null","html-keyboard-response","135","322741","0.0-3.0-0.66","","fixation","","",""
"1187","Set1/075a.jpg","79","image-keyboard-response","136","323935","0.0-3.0-1.66","","","Repeat","o","true"
"null","<div style=""font-size:60px;"">+</div>","null","html-keyboard-response","137","324443","0.0-3.0-0.67","","fixation","","",""
"1985","Set1/059a.jpg","78","image-keyboard-response","138","326431","0.0-3.0-1.67","","","Repeat","n","true"
"null","<div style=""font-size:60px;"">+</div>","null","html-keyboard-response","139","326960","0.0-3.0-0.68","","fixation","","",""
"987","Set1/149b.jpg","79","image-keyboard-response","140","327953","0.0-3.0-1.68","","","Update","o","true"
"null","<div style=""font-size:60px;"">+</div>","null","html-keyboard-response","141","328492","0.0-3.0-0.69","","fixation","","",""
"719","Set1/087a.jpg","79","image-keyboard-response","142","329217","0.0-3.0-1.69","","","Repeat","o","true"
"null","<div style=""font-size:60px;"">+</div>","null","html-keyboard-response","143","329726","0.0-3.0-0.70","","fixation","","",""
"834","Set1/187a.jpg","79","image-keyboard-response","144","330568","0.0-3.0-1.70","","","Set_2_Only","o","true"
"null","<div style=""font-size:60px;"">+</div>","null","html-keyboard-response","145","331101","0.0-3.0-0.71","","fixation","","",""
"801","Set1/059a.jpg","79","image-keyboard-response","146","331909","0.0-3.0-1.71","","","Repeat","o","true"
"null","<div style=""font-size:60px;"">+</div>","null","html-keyboard-response","147","332444","0.0-3.0-0.72","","fixation","","",""
"731","Set1/157b.jpg","79","image-keyboard-response","148","333182","0.0-3.0-1.72","","","Update","o","true"
"null","<div style=""font-size:60px;"">+</div>","null","html-keyboard-response","149","333711","0.0-3.0-0.73","","fixation","","",""
"809","Set1/123b.jpg","79","image-keyboard-response","150","334531","0.0-3.0-1.73","","","Update","o","true"
"null","<div style=""font-size:60px;"">+</div>","null","html-keyboard-response","151","335054","0.0-3.0-0.74","","fixation","","",""
"979","Set1/175a.jpg","78","image-keyboard-response","152","336040","0.0-3.0-1.74","","","Set_2_Only","o","false"
"null","<div style=""font-size:60px;"">+</div>","null","html-keyboard-response","153","336569","0.0-3.0-0.75","","fixation","","",""
"1008","Set1/188a.jpg","79","image-keyboard-response","154","337583","0.0-3.0-1.75","","","Set_2_Only","o","true"
"null","<div style=""font-size:60px;"">+</div>","null","html-keyboard-response","155","338116","0.0-3.0-0.76","","fixation","","",""
"1213","Set1/039a.jpg","78","image-keyboard-response","156","339336","0.0-3.0-1.76","","","Repeat","o","false"
"null","<div style=""font-size:60px;"">+</div>","null","html-keyboard-response","157","339851","0.0-3.0-0.77","","fixation","","",""
"1045","Set1/141b.jpg","78","image-keyboard-response","158","340900","0.0-3.0-1.77","","","Update","o","false"
"null","<div style=""font-size:60px;"">+</div>","null","html-keyboard-response","159","341428","0.0-3.0-0.78","","fixation","","",""
"966","Set1/091a.jpg","79","image-keyboard-response","160","342396","0.0-3.0-1.78","","","Repeat","o","true"
"null","<div style=""font-size:60px;"">+</div>","null","html-keyboard-response","161","342929","0.0-3.0-0.79","","fixation","","",""
"804","Set1/138b.jpg","79","image-keyboard-response","162","343737","0.0-3.0-1.79","","","Update","o","true"
"null","<div style=""font-size:60px;"">+</div>","null","html-keyboard-response","163","344241","0.0-3.0-0.80","","fixation","","",""
"2595","Set1/055a.jpg","79","image-keyboard-response","164","346840","0.0-3.0-1.80","","","Repeat","n","false"
"null","<div style=""font-size:60px;"">+</div>","null","html-keyboard-response","165","347349","0.0-3.0-0.81","","fixation","","",""
"2050","Set1/128b.jpg","78","image-keyboard-response","166","349401","0.0-3.0-1.81","","","Update","n","true"
"null","<div style=""font-size:60px;"">+</div>","null","html-keyboard-response","167","349927","0.0-3.0-0.82","","fixation","","",""
"2599","Set1/046a.jpg","78","image-keyboard-response","168","352528","0.0-3.0-1.82","","","Repeat","n","true"
"null","<div style=""font-size:60px;"">+</div>","null","html-keyboard-response","169","353038","0.0-3.0-0.83","","fixation","","",""
"2324","Set1/139b.jpg","79","image-keyboard-response","170","355369","0.0-3.0-1.83","","","Update","n","false"
"null","<div style=""font-size:60px;"">+</div>","null","html-keyboard-response","171","355897","0.0-3.0-0.84","","fixation","","",""
"1655","Set1/084a.jpg","79","image-keyboard-response","172","357561","0.0-3.0-1.84","","","Repeat","n","false"
"null","<div style=""font-size:60px;"">+</div>","null","html-keyboard-response","173","358086","0.0-3.0-0.85","","fixation","","",""
"2596","Set1/147b.jpg","78","image-keyboard-response","174","360689","0.0-3.0-1.85","","","Update","n","true"
"null","<div style=""font-size:60px;"">+</div>","null","html-keyboard-response","175","361210","0.0-3.0-0.86","","fixation","","",""
"2934","Set1/176a.jpg","78","image-keyboard-response","176","364153","0.0-3.0-1.86","","","Set_2_Only","n","true"
"null","<div style=""font-size:60px;"">+</div>","null","html-keyboard-response","177","364679","0.0-3.0-0.87","","fixation","","",""
"3560","Set1/042a.jpg","78","image-keyboard-response","178","368247","0.0-3.0-1.87","","","Repeat","n","true"
"null","<div style=""font-size:60px;"">+</div>","null","html-keyboard-response","179","368773","0.0-3.0-0.88","","fixation","","",""
"2294","Set1/114b.jpg","79","image-keyboard-response","180","371074","0.0-3.0-1.88","","","Update","n","false"
"null","<div style=""font-size:60px;"">+</div>","null","html-keyboard-response","181","371585","0.0-3.0-0.89","","fixation","","",""
"2418","Set1/064a.jpg","79","image-keyboard-response","182","374012","0.0-3.0-1.89","","","Repeat","n","false"
"null","<div style=""font-size:60px;"">+</div>","null","html-keyboard-response","183","374538","0.0-3.0-0.90","","fixation","","",""
"2498","Set1/036a.jpg","79","image-keyboard-response","184","377044","0.0-3.0-1.90","","","Repeat","n","false"
"null","<div style=""font-size:60px;"">+</div>","null","html-keyboard-response","185","377570","0.0-3.0-0.91","","fixation","","",""
"792","Set1/139b.jpg","79","image-keyboard-response","186","378369","0.0-3.0-1.91","","","Update","o","true"
"null","<div style=""font-size:60px;"">+</div>","null","html-keyboard-response","187","378883","0.0-3.0-0.92","","fixation","","",""
"747","Set1/128b.jpg","79","image-keyboard-response","188","379636","0.0-3.0-1.92","","","Update","o","true"
"null","<div style=""font-size:60px;"">+</div>","null","html-keyboard-response","189","380148","0.0-3.0-0.93","","fixation","","",""
"2716","Set1/044a.jpg","79","image-keyboard-response","190","382872","0.0-3.0-1.93","","","Repeat","n","false"
"null","<div style=""font-size:60px;"">+</div>","null","html-keyboard-response","191","383398","0.0-3.0-0.94","","fixation","","",""
"1592","Set1/162a.jpg","78","image-keyboard-response","192","384996","0.0-3.0-1.94","","","Set_2_Only","n","true"
"null","<div style=""font-size:60px;"">+</div>","null","html-keyboard-response","193","385523","0.0-3.0-0.95","","fixation","","",""
"1664","Set1/074a.jpg","79","image-keyboard-response","194","387196","0.0-3.0-1.95","","","Repeat","n","false"
"null","<div style=""font-size:60px;"">+</div>","null","html-keyboard-response","195","387726","0.0-3.0-0.96","","fixation","","",""
"708","Set1/114b.jpg","79","image-keyboard-response","196","388442","0.0-3.0-1.96","","","Update","o","true"
"null","<div style=""font-size:60px;"">+</div>","null","html-keyboard-response","197","388976","0.0-3.0-0.97","","fixation","","",""
"3082","Set1/159b.jpg","78","image-keyboard-response","198","392066","0.0-3.0-1.97","","","Update","n","true"
"null","<div style=""font-size:60px;"">+</div>","null","html-keyboard-response","199","392600","0.0-3.0-0.98","","fixation","","",""
"null","Set1/143b.jpg","null","image-keyboard-response","200","402637","0.0-3.0-1.98","","","Update","n","false"
"null","<div style=""font-size:60px;"">+</div>","null","html-keyboard-response","201","403146","0.0-3.0-0.99","","fixation","","",""
"4309","Set1/103b.jpg","79","image-keyboard-response","202","407457","0.0-3.0-1.99","","","Update","n","false"
"null","<div style=""font-size:60px;"">+</div>","null","html-keyboard-response","203","407990","0.0-3.0-0.100","","fixation","","",""
"2531","Set1/047a.jpg","79","image-keyboard-response","204","410530","0.0-3.0-1.100","","","Repeat","n","false"
"null","<div style=""font-size:60px;"">+</div>","null","html-keyboard-response","205","411053","0.0-3.0-0.101","","fixation","","",""
"680","Set1/064a.jpg","79","image-keyboard-response","206","411740","0.0-3.0-1.101","","","Repeat","o","true"
"null","<div style=""font-size:60px;"">+</div>","null","html-keyboard-response","207","412273","0.0-3.0-0.102","","fixation","","",""
"3058","Set1/191a.jpg","78","image-keyboard-response","208","415337","0.0-3.0-1.102","","","Set_2_Only","n","true"
"null","<div style=""font-size:60px;"">+</div>","null","html-keyboard-response","209","415865","0.0-3.0-0.103","","fixation","","",""
"3017","Set1/071a.jpg","79","image-keyboard-response","210","418888","0.0-3.0-1.103","","","Repeat","n","false"
"null","<div style=""font-size:60px;"">+</div>","null","html-keyboard-response","211","419397","0.0-3.0-0.104","","fixation","","",""
"2467","Set1/096a.jpg","78","image-keyboard-response","212","421871","0.0-3.0-1.104","","","Repeat","n","true"
"null","<div style=""font-size:60px;"">+</div>","null","html-keyboard-response","213","422396","0.0-3.0-0.105","","fixation","","",""
"2356","Set1/098b.jpg","79","image-keyboard-response","214","424755","0.0-3.0-1.105","","","Update","n","false"
"null","<div style=""font-size:60px;"">+</div>","null","html-keyboard-response","215","425289","0.0-3.0-0.106","","fixation","","",""
"2197","Set1/106b.jpg","78","image-keyboard-response","216","427493","0.0-3.0-1.106","","","Update","n","true"
"null","<div style=""font-size:60px;"">+</div>","null","html-keyboard-response","217","428006","0.0-3.0-0.107","","fixation","","",""
"1174","Set1/159b.jpg","79","image-keyboard-response","218","429181","0.0-3.0-1.107","","","Update","o","true"
"null","<div style=""font-size:60px;"">+</div>","null","html-keyboard-response","219","429708","0.0-3.0-0.108","","fixation","","",""
"751","Set1/071a.jpg","79","image-keyboard-response","220","430461","0.0-3.0-1.108","","","Repeat","o","true"
"null","<div style=""font-size:60px;"">+</div>","null","html-keyboard-response","221","430974","0.0-3.0-0.109","","fixation","","",""
"684","Set1/047a.jpg","79","image-keyboard-response","222","431660","0.0-3.0-1.109","","","Repeat","o","true"
"null","<div style=""font-size:60px;"">+</div>","null","html-keyboard-response","223","432194","0.0-3.0-0.110","","fixation","","",""
"2631","Set1/144b.jpg","79","image-keyboard-response","224","434832","0.0-3.0-1.110","","","Update","n","false"
"null","<div style=""font-size:60px;"">+</div>","null","html-keyboard-response","225","435335","0.0-3.0-0.111","","fixation","","",""
"2401","Set1/069a.jpg","79","image-keyboard-response","226","437743","0.0-3.0-1.111","","","Repeat","n","false"
"null","<div style=""font-size:60px;"">+</div>","null","html-keyboard-response","227","438272","0.0-3.0-0.112","","fixation","","",""
"2246","Set1/034a.jpg","78","image-keyboard-response","228","440524","0.0-3.0-1.112","","","Repeat","n","true"
"null","<div style=""font-size:60px;"">+</div>","null","html-keyboard-response","229","441054","0.0-3.0-0.113","","fixation","","",""
"1463","Set1/050a.jpg","79","image-keyboard-response","230","442525","0.0-3.0-1.113","","","Repeat","n","false"
"null","<div style=""font-size:60px;"">+</div>","null","html-keyboard-response","231","443054","0.0-3.0-0.114","","fixation","","",""
"1977","Set1/068a.jpg","79","image-keyboard-response","232","445039","0.0-3.0-1.114","","","Repeat","n","false"
"null","<div style=""font-size:60px;"">+</div>","null","html-keyboard-response","233","445569","0.0-3.0-0.115","","fixation","","",""
"2315","Set1/130b.jpg","78","image-keyboard-response","234","447892","0.0-3.0-1.115","","","Update","n","true"
"null","<div style=""font-size:60px;"">+</div>","null","html-keyboard-response","235","448429","0.0-3.0-0.116","","fixation","","",""
"1049","Set1/046a.jpg","79","image-keyboard-response","236","449485","0.0-3.0-1.116","","","Repeat","o","true"
"null","<div style=""font-size:60px;"">+</div>","null","html-keyboard-response","237","450022","0.0-3.0-0.117","","fixation","","",""
"2311","Set1/073a.jpg","79","image-keyboard-response","238","452343","0.0-3.0-1.117","","","Repeat","n","false"
"null","<div style=""font-size:60px;"">+</div>","null","html-keyboard-response","239","452871","0.0-3.0-0.118","","fixation","","",""
"1843","Set1/078a.jpg","79","image-keyboard-response","240","454724","0.0-3.0-1.118","","","Repeat","n","false"
"null","<div style=""font-size:60px;"">+</div>","null","html-keyboard-response","241","455247","0.0-3.0-0.119","","fixation","","",""
"736","Set1/147b.jpg","79","image-keyboard-response","242","455990","0.0-3.0-1.119","","","Update","o","true"
"null","<div style=""font-size:60px;"">+</div>","null","html-keyboard-response","243","456518","0.0-3.0-0.120","","fixation","","",""
"2162","Set1/066a.jpg","79","image-keyboard-response","244","458687","0.0-3.0-1.120","","","Repeat","n","false"
"null","<div style=""font-size:60px;"">+</div>","null","html-keyboard-response","245","459215","0.0-3.0-0.121","","fixation","","",""
"960","Set1/106b.jpg","79","image-keyboard-response","246","460183","0.0-3.0-1.121","","","Update","o","true"
"null","<div style=""font-size:60px;"">+</div>","null","html-keyboard-response","247","460716","0.0-3.0-0.122","","fixation","","",""
"3828","Set1/112b.jpg","79","image-keyboard-response","248","464551","0.0-3.0-1.122","","","Update","n","false"
"null","<div style=""font-size:60px;"">+</div>","null","html-keyboard-response","249","465074","0.0-3.0-0.123","","fixation","","",""
"3236","Set1/185a.jpg","78","image-keyboard-response","250","468322","0.0-3.0-1.123","","","Set_2_Only","n","true"
"null","<div style=""font-size:60px;"">+</div>","null","html-keyboard-response","251","468841","0.0-3.0-0.124","","fixation","","",""
"854","Set1/036a.jpg","79","image-keyboard-response","252","469703","0.0-3.0-1.124","","","Repeat","o","true"
"null","<div style=""font-size:60px;"">+</div>","null","html-keyboard-response","253","470231","0.0-3.0-0.125","","fixation","","",""
"795","Set1/098b.jpg","79","image-keyboard-response","254","471032","0.0-3.0-1.125","","","Update","o","true"
"null","<div style=""font-size:60px;"">+</div>","null","html-keyboard-response","255","471558","0.0-3.0-0.126","","fixation","","",""
"882","Set1/096a.jpg","79","image-keyboard-response","256","472447","0.0-3.0-1.126","","","Repeat","o","true"
"null","<div style=""font-size:60px;"">+</div>","null","html-keyboard-response","257","472981","0.0-3.0-0.127","","fixation","","",""
"926","Set1/185a.jpg","78","image-keyboard-response","258","473913","0.0-3.0-1.127","","","Set_2_Only","o","false"
"null","<div style=""font-size:60px;"">+</div>","null","html-keyboard-response","259","474448","0.0-3.0-0.128","","fixation","","",""
"824","Set1/066a.jpg","79","image-keyboard-response","260","475279","0.0-3.0-1.128","","","Repeat","o","true"
"null","<div style=""font-size:60px;"">+</div>","null","html-keyboard-response","261","475808","0.0-3.0-0.129","","fixation","","",""
"717","Set1/144b.jpg","79","image-keyboard-response","262","476533","0.0-3.0-1.129","","","Update","o","true"
"null","<div style=""font-size:60px;"">+</div>","null","html-keyboard-response","263","477041","0.0-3.0-0.130","","fixation","","",""
"1604","Set1/112b.jpg","79","image-keyboard-response","264","478649","0.0-3.0-1.130","","","Update","o","true"
"null","<div style=""font-size:60px;"">+</div>","null","html-keyboard-response","265","479184","0.0-3.0-0.131","","fixation","","",""
"823","Set1/162a.jpg","79","image-keyboard-response","266","480014","0.0-3.0-1.131","","","Set_2_Only","o","true"
"null","<div style=""font-size:60px;"">+</div>","null","html-keyboard-response","267","480543","0.0-3.0-0.132","","fixation","","",""
"631","Set1/176a.jpg","79","image-keyboard-response","268","481186","0.0-3.0-1.132","","","Set_2_Only","o","true"
"null","<div style=""font-size:60px;"">+</div>","null","html-keyboard-response","269","481721","0.0-3.0-0.133","","fixation","","",""
"696","Set1/050a.jpg","79","image-keyboard-response","270","482424","0.0-3.0-1.133","","","Repeat","o","true"
"null","<div style=""font-size:60px;"">+</div>","null","html-keyboard-response","271","482934","0.0-3.0-0.134","","fixation","","",""
"756","Set1/078a.jpg","79","image-keyboard-response","272","483697","0.0-3.0-1.134","","","Repeat","o","true"
"null","<div style=""font-size:60px;"">+</div>","null","html-keyboard-response","273","484230","0.0-3.0-0.135","","fixation","","",""
"2501","Set1/150b.jpg","78","image-keyboard-response","274","486745","0.0-3.0-1.135","","","Update","n","true"
"null","<div style=""font-size:60px;"">+</div>","null","html-keyboard-response","275","487277","0.0-3.0-0.136","","fixation","","",""
"3154","Set1/043a.jpg","79","image-keyboard-response","276","490440","0.0-3.0-1.136","","","Repeat","n","false"
"null","<div style=""font-size:60px;"">+</div>","null","html-keyboard-response","277","490965","0.0-3.0-0.137","","fixation","","",""
"2058","Set1/100b.jpg","79","image-keyboard-response","278","493033","0.0-3.0-1.137","","","Update","n","false"
"null","<div style=""font-size:60px;"">+</div>","null","html-keyboard-response","279","493560","0.0-3.0-0.138","","fixation","","",""
"719","Set1/042a.jpg","79","image-keyboard-response","280","494288","0.0-3.0-1.138","","","Repeat","o","true"
"null","<div style=""font-size:60px;"">+</div>","null","html-keyboard-response","281","494823","0.0-3.0-0.139","","fixation","","",""
"3060","Set1/131b.jpg","79","image-keyboard-response","282","497886","0.0-3.0-1.139","","","Update","n","false"
"null","<div style=""font-size:60px;"">+</div>","null","html-keyboard-response","283","498418","0.0-3.0-0.140","","fixation","","",""
"713","Set1/073a.jpg","79","image-keyboard-response","284","499143","0.0-3.0-1.140","","","Repeat","o","true"
"null","<div style=""font-size:60px;"">+</div>","null","html-keyboard-response","285","499669","0.0-3.0-0.141","","fixation","","",""
"714","Set1/074a.jpg","79","image-keyboard-response","286","500391","0.0-3.0-1.141","","","Repeat","o","true"
"null","<div style=""font-size:60px;"">+</div>","null","html-keyboard-response","287","500918","0.0-3.0-0.142","","fixation","","",""
"700","Set1/034a.jpg","79","image-keyboard-response","288","501627","0.0-3.0-1.142","","","Repeat","o","true"
"null","<div style=""font-size:60px;"">+</div>","null","html-keyboard-response","289","502153","0.0-3.0-0.143","","fixation","","",""
"612","Set1/068a.jpg","79","image-keyboard-response","290","502772","0.0-3.0-1.143","","","Repeat","o","true"
"null","<div style=""font-size:60px;"">+</div>","null","html-keyboard-response","291","503309","0.0-3.0-0.144","","fixation","","",""
"812","Set1/191a.jpg","79","image-keyboard-response","292","504129","0.0-3.0-1.144","","","Set_2_Only","o","true"
"null","<div style=""font-size:60px;"">+</div>","null","html-keyboard-response","293","504639","0.0-3.0-0.145","","fixation","","",""
"667","Set1/131b.jpg","79","image-keyboard-response","294","505313","0.0-3.0-1.145","","","Update","o","true"
"null","<div style=""font-size:60px;"">+</div>","null","html-keyboard-response","295","505840","0.0-3.0-0.146","","fixation","","",""
"736","Set1/043a.jpg","79","image-keyboard-response","296","506584","0.0-3.0-1.146","","","Repeat","o","true"
"null","<div style=""font-size:60px;"">+</div>","null","html-keyboard-response","297","507121","0.0-3.0-0.147","","fixation","","",""
"712","Set1/100b.jpg","79","image-keyboard-response","298","507841","0.0-3.0-1.147","","","Update","o","true"
"null","<div style=""font-size:60px;"">+</div>","null","html-keyboard-response","299","508361","0.0-3.0-0.148","","fixation","","",""
"625","Set1/055a.jpg","79","image-keyboard-response","300","508997","0.0-3.0-1.148","","","Repeat","o","true"
"null","<div style=""font-size:60px;"">+</div>","null","html-keyboard-response","301","509528","0.0-3.0-0.149","","fixation","","",""
"3280","Set1/041a.jpg","79","image-keyboard-response","302","512816","0.0-3.0-1.149","","","Repeat","n","false"
"null","<div style=""font-size:60px;"">+</div>","null","html-keyboard-response","303","513324","0.0-3.0-0.150","","fixation","","",""
"739","Set1/069a.jpg","79","image-keyboard-response","304","514073","0.0-3.0-1.150","","","Repeat","o","true"
"null","<div style=""font-size:60px;"">+</div>","null","html-keyboard-response","305","514606","0.0-3.0-0.151","","fixation","","",""
"null","Set1/061a.jpg","null","image-keyboard-response","306","524637","0.0-3.0-1.151","","","Repeat","n","false"
"null","<div style=""font-size:60px;"">+</div>","null","html-keyboard-response","307","525168","0.0-3.0-0.152","","fixation","","",""
"996","Set1/103b.jpg","78","image-keyboard-response","308","526174","0.0-3.0-1.152","","","Update","o","false"
"null","<div style=""font-size:60px;"">+</div>","null","html-keyboard-response","309","526699","0.0-3.0-0.153","","fixation","","",""
"801","Set1/044a.jpg","79","image-keyboard-response","310","527509","0.0-3.0-1.153","","","Repeat","o","true"
"null","<div style=""font-size:60px;"">+</div>","null","html-keyboard-response","311","528043","0.0-3.0-0.154","","fixation","","",""
"930","Set1/150b.jpg","79","image-keyboard-response","312","528979","0.0-3.0-1.154","","","Update","o","true"
"null","<div style=""font-size:60px;"">+</div>","null","html-keyboard-response","313","529512","0.0-3.0-0.155","","fixation","","",""
"730","Set1/084a.jpg","79","image-keyboard-response","314","530250","0.0-3.0-1.155","","","Repeat","o","true"
"null","<div style=""font-size:60px;"">+</div>","null","html-keyboard-response","315","530778","0.0-3.0-0.156","","fixation","","",""
"706","Set1/130b.jpg","79","image-keyboard-response","316","531492","0.0-3.0-1.156","","","Update","o","true"
"null","<div style=""font-size:60px;"">+</div>","null","html-keyboard-response","317","532027","0.0-3.0-0.157","","fixation","","",""
"882","Set1/143b.jpg","78","image-keyboard-response","318","532917","0.0-3.0-1.157","","","Update","o","false"
"null","<div style=""font-size:60px;"">+</div>","null","html-keyboard-response","319","533449","0.0-3.0-0.158","","fixation","","",""
"993","Set1/061a.jpg","79","image-keyboard-response","320","534450","0.0-3.0-1.158","","","Repeat","o","true"
"null","<div style=""font-size:60px;"">+</div>","null","html-keyboard-response","321","534982","0.0-3.0-0.159","","fixation","","",""
"606","Set1/041a.jpg","79","image-keyboard-response","322","535594","0.0-3.0-1.159","","","Repeat","o","true"
"null","<div style=""font-size:60px;"">+</div>","null","html-keyboard-response","323","536122","0.0-3.0-0.160","","fixation","","",""
"2434","Set1/113b.jpg","79","image-keyboard-response","324","538565","0.0-3.0-1.160","","","Update","n","false"
"null","<div style=""font-size:60px;"">+</div>","null","html-keyboard-response","325","539090","0.0-3.0-0.161","","fixation","","",""
"2834","Set1/105b.jpg","78","image-keyboard-response","326","541932","0.0-3.0-1.161","","","Update","n","true"
"null","<div style=""font-size:60px;"">+</div>","null","html-keyboard-response","327","542465","0.0-3.0-0.162","","fixation","","",""
"2179","Set1/056a.jpg","79","image-keyboard-response","328","544653","0.0-3.0-1.162","","","Repeat","n","false"
"null","<div style=""font-size:60px;"">+</div>","null","html-keyboard-response","329","545184","0.0-3.0-0.163","","fixation","","",""
"1227","Set1/070a.jpg","79","image-keyboard-response","330","546421","0.0-3.0-1.163","","","Repeat","n","false"
"null","<div style=""font-size:60px;"">+</div>","null","html-keyboard-response","331","546950","0.0-3.0-0.164","","fixation","","",""
"2430","Set1/089a.jpg","78","image-keyboard-response","332","549388","0.0-3.0-1.164","","","Repeat","n","true"
"null","<div style=""font-size:60px;"">+</div>","null","html-keyboard-response","333","549902","0.0-3.0-0.165","","fixation","","",""
"3142","Set1/165a.jpg","78","image-keyboard-response","334","553059","0.0-3.0-1.165","","","Set_2_Only","n","true"
"null","<div style=""font-size:60px;"">+</div>","null","html-keyboard-response","335","553590","0.0-3.0-0.166","","fixation","","",""
"2492","Set1/065a.jpg","78","image-keyboard-response","336","556091","0.0-3.0-1.166","","","Repeat","n","true"
"null","<div style=""font-size:60px;"">+</div>","null","html-keyboard-response","337","556621","0.0-3.0-0.167","","fixation","","",""
"1863","Set1/104b.jpg","79","image-keyboard-response","338","558493","0.0-3.0-1.167","","","Update","n","false"
"null","<div style=""font-size:60px;"">+</div>","null","html-keyboard-response","339","559027","0.0-3.0-0.168","","fixation","","",""
"786","Set1/065a.jpg","79","image-keyboard-response","340","559828","0.0-3.0-1.168","","","Repeat","o","true"
"null","<div style=""font-size:60px;"">+</div>","null","html-keyboard-response","341","560355","0.0-3.0-0.169","","fixation","","",""
"1841","Set1/082a.jpg","79","image-keyboard-response","342","562206","0.0-3.0-1.169","","","Repeat","n","false"
"null","<div style=""font-size:60px;"">+</div>","null","html-keyboard-response","343","562730","0.0-3.0-0.170","","fixation","","",""
"1583","Set1/134b.jpg","78","image-keyboard-response","344","564322","0.0-3.0-1.170","","","Update","n","true"
"null","<div style=""font-size:60px;"">+</div>","null","html-keyboard-response","345","564839","0.0-3.0-0.171","","fixation","","",""
"1725","Set1/158b.jpg","78","image-keyboard-response","346","566566","0.0-3.0-1.171","","","Update","n","true"
"null","<div style=""font-size:60px;"">+</div>","null","html-keyboard-response","347","567089","0.0-3.0-0.172","","fixation","","",""
"1905","Set1/057a.jpg","79","image-keyboard-response","348","569004","0.0-3.0-1.172","","","Repeat","n","false"
"null","<div style=""font-size:60px;"">+</div>","null","html-keyboard-response","349","569527","0.0-3.0-0.173","","fixation","","",""
"708","Set1/105b.jpg","79","image-keyboard-response","350","570247","0.0-3.0-1.173","","","Update","o","true"
"null","<div style=""font-size:60px;"">+</div>","null","html-keyboard-response","351","570779","0.0-3.0-0.174","","fixation","","",""
"2307","Set1/161a.jpg","78","image-keyboard-response","352","573094","0.0-3.0-1.174","","","Set_2_Only","n","true"
"null","<div style=""font-size:60px;"">+</div>","null","html-keyboard-response","353","573620","0.0-3.0-0.175","","fixation","","",""
"1596","Set1/101b.jpg","79","image-keyboard-response","354","575227","0.0-3.0-1.175","","","Update","n","false"
"null","<div style=""font-size:60px;"">+</div>","null","html-keyboard-response","355","575747","0.0-3.0-0.176","","fixation","","",""
"1001","Set1/089a.jpg","79","image-keyboard-response","356","576756","0.0-3.0-1.176","","","Repeat","o","true"
"null","<div style=""font-size:60px;"">+</div>","null","html-keyboard-response","357","577293","0.0-3.0-0.177","","fixation","","",""
"682","Set1/101b.jpg","79","image-keyboard-response","358","577983","0.0-3.0-1.177","","","Update","o","true"
"null","<div style=""font-size:60px;"">+</div>","null","html-keyboard-response","359","578512","0.0-3.0-0.178","","fixation","","",""
"827","Set1/134b.jpg","79","image-keyboard-response","360","579348","0.0-3.0-1.178","","","Update","o","true"
"null","<div style=""font-size:60px;"">+</div>","null","html-keyboard-response","361","579856","0.0-3.0-0.179","","fixation","","",""
"701","Set1/161a.jpg","79","image-keyboard-response","362","580566","0.0-3.0-1.179","","","Set_2_Only","o","true"
"null","<div style=""font-size:60px;"">+</div>","null","html-keyboard-response","363","581074","0.0-3.0-0.180","","fixation","","",""
"2306","Set1/116b.jpg","79","image-keyboard-response","364","583384","0.0-3.0-1.180","","","Update","n","false"
"null","<div style=""font-size:60px;"">+</div>","null","html-keyboard-response","365","583918","0.0-3.0-0.181","","fixation","","",""
"2472","Set1/152b.jpg","78","image-keyboard-response","366","586400","0.0-3.0-1.181","","","Update","n","true"
"null","<div style=""font-size:60px;"">+</div>","null","html-keyboard-response","367","586935","0.0-3.0-0.182","","fixation","","",""
"2533","Set1/045a.jpg","79","image-keyboard-response","368","589478","0.0-3.0-1.182","","","Repeat","n","false"
"null","<div style=""font-size:60px;"">+</div>","null","html-keyboard-response","369","590013","0.0-3.0-0.183","","fixation","","",""
"2670","Set1/183a.jpg","78","image-keyboard-response","370","592693","0.0-3.0-1.183","","","Set_2_Only","n","true"
"null","<div style=""font-size:60px;"">+</div>","null","html-keyboard-response","371","593232","0.0-3.0-0.184","","fixation","","",""
"2531","Set1/053a.jpg","78","image-keyboard-response","372","595772","0.0-3.0-1.184","","","Repeat","n","true"
"null","<div style=""font-size:60px;"">+</div>","null","html-keyboard-response","373","596310","0.0-3.0-0.185","","fixation","","",""
"2834","Set1/182a.jpg","78","image-keyboard-response","374","599152","0.0-3.0-1.185","","","Set_2_Only","n","true"
"null","<div style=""font-size:60px;"">+</div>","null","html-keyboard-response","375","599685","0.0-3.0-0.186","","fixation","","",""
"2338","Set1/124b.jpg","79","image-keyboard-response","376","602032","0.0-3.0-1.186","","","Update","n","false"
"null","<div style=""font-size:60px;"">+</div>","null","html-keyboard-response","377","602560","0.0-3.0-0.187","","fixation","","",""
"1924","Set1/155b.jpg","78","image-keyboard-response","378","604493","0.0-3.0-1.187","","","Update","n","true"
"null","<div style=""font-size:60px;"">+</div>","null","html-keyboard-response","379","605028","0.0-3.0-0.188","","fixation","","",""
"854","Set1/104b.jpg","79","image-keyboard-response","380","605893","0.0-3.0-1.188","","","Update","o","true"
"null","<div style=""font-size:60px;"">+</div>","null","html-keyboard-response","381","606419","0.0-3.0-0.189","","fixation","","",""
"2387","Set1/052a.jpg","79","image-keyboard-response","382","608816","0.0-3.0-1.189","","","Repeat","n","false"
"null","<div style=""font-size:60px;"">+</div>","null","html-keyboard-response","383","609341","0.0-3.0-0.190","","fixation","","",""
"695","Set1/158b.jpg","79","image-keyboard-response","384","610045","0.0-3.0-1.190","","","Update","o","true"
"null","<div style=""font-size:60px;"">+</div>","null","html-keyboard-response","385","610576","0.0-3.0-0.191","","fixation","","",""
"2964","Set1/184a.jpg","78","image-keyboard-response","386","613549","0.0-3.0-1.191","","","Set_2_Only","n","true"
"null","<div style=""font-size:60px;"">+</div>","null","html-keyboard-response","387","614065","0.0-3.0-0.192","","fixation","","",""
"918","Set1/052a.jpg","79","image-keyboard-response","388","614991","0.0-3.0-1.192","","","Repeat","o","true"
"null","<div style=""font-size:60px;"">+</div>","null","html-keyboard-response","389","615528","0.0-3.0-0.193","","fixation","","",""
"2159","Set1/192a.jpg","78","image-keyboard-response","390","617696","0.0-3.0-1.193","","","Set_2_Only","n","true"
"null","<div style=""font-size:60px;"">+</div>","null","html-keyboard-response","391","618232","0.0-3.0-0.194","","fixation","","",""
"752","Set1/155b.jpg","79","image-keyboard-response","392","618992","0.0-3.0-1.194","","","Update","o","true"
"null","<div style=""font-size:60px;"">+</div>","null","html-keyboard-response","393","619529","0.0-3.0-0.195","","fixation","","",""
"652","Set1/070a.jpg","79","image-keyboard-response","394","620190","0.0-3.0-1.195","","","Repeat","o","true"
"null","<div style=""font-size:60px;"">+</div>","null","html-keyboard-response","395","620701","0.0-3.0-0.196","","fixation","","",""
"2785","Set1/048a.jpg","79","image-keyboard-response","396","623495","0.0-3.0-1.196","","","Repeat","n","false"
"null","<div style=""font-size:60px;"">+</div>","null","html-keyboard-response","397","624027","0.0-3.0-0.197","","fixation","","",""
"2428","Set1/122b.jpg","79","image-keyboard-response","398","626458","0.0-3.0-1.197","","","Update","n","false"
"null","<div style=""font-size:60px;"">+</div>","null","html-keyboard-response","399","626997","0.0-3.0-0.198","","fixation","","",""
"1852","Set1/156b.jpg","79","image-keyboard-response","400","628862","0.0-3.0-1.198","","","Update","n","false"
"null","<div style=""font-size:60px;"">+</div>","null","html-keyboard-response","401","629387","0.0-3.0-0.199","","fixation","","",""
"1835","Set1/097b.jpg","78","image-keyboard-response","402","631232","0.0-3.0-1.199","","","Update","n","true"
"null","<div style=""font-size:60px;"">+</div>","null","html-keyboard-response","403","631762","0.0-3.0-0.200","","fixation","","",""
"1996","Set1/118b.jpg","79","image-keyboard-response","404","633769","0.0-3.0-1.200","","","Update","n","false"
"null","<div style=""font-size:60px;"">+</div>","null","html-keyboard-response","405","634293","0.0-3.0-0.201","","fixation","","",""
"859","Set1/183a.jpg","79","image-keyboard-response","406","635160","0.0-3.0-1.201","","","Set_2_Only","o","true"
"null","<div style=""font-size:60px;"">+</div>","null","html-keyboard-response","407","635684","0.0-3.0-0.202","","fixation","","",""
"2011","Set1/107b.jpg","78","image-keyboard-response","408","637705","0.0-3.0-1.202","","","Update","n","true"
"null","<div style=""font-size:60px;"">+</div>","null","html-keyboard-response","409","638232","0.0-3.0-0.203","","fixation","","",""
"697","Set1/048a.jpg","79","image-keyboard-response","410","638938","0.0-3.0-1.203","","","Repeat","o","true"
"null","<div style=""font-size:60px;"">+</div>","null","html-keyboard-response","411","639466","0.0-3.0-0.204","","fixation","","",""
"750","Set1/116b.jpg","79","image-keyboard-response","412","640225","0.0-3.0-1.204","","","Update","o","true"
"null","<div style=""font-size:60px;"">+</div>","null","html-keyboard-response","413","640762","0.0-3.0-0.205","","fixation","","",""
"2560","Set1/174a.jpg","78","image-keyboard-response","414","643331","0.0-3.0-1.205","","","Set_2_Only","n","true"
"null","<div style=""font-size:60px;"">+</div>","null","html-keyboard-response","415","643856","0.0-3.0-0.206","","fixation","","",""
"1695","Set1/190a.jpg","78","image-keyboard-response","416","645561","0.0-3.0-1.206","","","Set_2_Only","n","true"
"null","<div style=""font-size:60px;"">+</div>","null","html-keyboard-response","417","646089","0.0-3.0-0.207","","fixation","","",""
"718","Set1/056a.jpg","79","image-keyboard-response","418","646814","0.0-3.0-1.207","","","Repeat","o","true"
"null","<div style=""font-size:60px;"">+</div>","null","html-keyboard-response","419","647341","0.0-3.0-0.208","","fixation","","",""
"2299","Set1/085a.jpg","79","image-keyboard-response","420","649651","0.0-3.0-1.208","","","Repeat","n","false"
"null","<div style=""font-size:60px;"">+</div>","null","html-keyboard-response","421","650168","0.0-3.0-0.209","","fixation","","",""
"702","Set1/182a.jpg","79","image-keyboard-response","422","650880","0.0-3.0-1.209","","","Set_2_Only","o","true"
"null","<div style=""font-size:60px;"">+</div>","null","html-keyboard-response","423","651419","0.0-3.0-0.210","","fixation","","",""
"2084","Set1/163a.jpg","78","image-keyboard-response","424","653513","0.0-3.0-1.210","","","Set_2_Only","n","true"
"null","<div style=""font-size:60px;"">+</div>","null","html-keyboard-response","425","654047","0.0-3.0-0.211","","fixation","","",""
"2602","Set1/189a.jpg","78","image-keyboard-response","426","656665","0.0-3.0-1.211","","","Set_2_Only","n","true"
"null","<div style=""font-size:60px;"">+</div>","null","html-keyboard-response","427","657184","0.0-3.0-0.212","","fixation","","",""
"1883","Set1/097b.jpg","79","image-keyboard-response","428","659075","0.0-3.0-1.212","","","Update","o","true"
"null","<div style=""font-size:60px;"">+</div>","null","html-keyboard-response","429","659606","0.0-3.0-0.213","","fixation","","",""
"954","Set1/113b.jpg","79","image-keyboard-response","430","660570","0.0-3.0-1.213","","","Update","o","true"
"null","<div style=""font-size:60px;"">+</div>","null","html-keyboard-response","431","661106","0.0-3.0-0.214","","fixation","","",""
"772","Set1/174a.jpg","79","image-keyboard-response","432","661885","0.0-3.0-1.214","","","Set_2_Only","o","true"
"null","<div style=""font-size:60px;"">+</div>","null","html-keyboard-response","433","662419","0.0-3.0-0.215","","fixation","","",""
"2813","Set1/115b.jpg","79","image-keyboard-response","434","665243","0.0-3.0-1.215","","","Update","n","false"
"null","<div style=""font-size:60px;"">+</div>","null","html-keyboard-response","435","665778","0.0-3.0-0.216","","fixation","","",""
"760","Set1/124b.jpg","79","image-keyboard-response","436","666549","0.0-3.0-1.216","","","Update","o","true"
"null","<div style=""font-size:60px;"">+</div>","null","html-keyboard-response","437","667073","0.0-3.0-0.217","","fixation","","",""
"2790","Set1/186a.jpg","78","image-keyboard-response","438","669866","0.0-3.0-1.217","","","Set_2_Only","n","true"
"null","<div style=""font-size:60px;"">+</div>","null","html-keyboard-response","439","670403","0.0-3.0-0.218","","fixation","","",""
"2053","Set1/169a.jpg","78","image-keyboard-response","440","672467","0.0-3.0-1.218","","","Set_2_Only","n","true"
"null","<div style=""font-size:60px;"">+</div>","null","html-keyboard-response","441","672997","0.0-3.0-0.219","","fixation","","",""
"686","Set1/192a.jpg","79","image-keyboard-response","442","673692","0.0-3.0-1.219","","","Set_2_Only","o","true"
"null","<div style=""font-size:60px;"">+</div>","null","html-keyboard-response","443","674215","0.0-3.0-0.220","","fixation","","",""
"740","Set1/163a.jpg","79","image-keyboard-response","444","674963","0.0-3.0-1.220","","","Set_2_Only","o","true"
"null","<div style=""font-size:60px;"">+</div>","null","html-keyboard-response","445","675497","0.0-3.0-0.221","","fixation","","",""
"698","Set1/118b.jpg","79","image-keyboard-response","446","676203","0.0-3.0-1.221","","","Update","o","true"
"null","<div style=""font-size:60px;"">+</div>","null","html-keyboard-response","447","676732","0.0-3.0-0.222","","fixation","","",""
"888","Set1/107b.jpg","79","image-keyboard-response","448","677628","0.0-3.0-1.222","","","Update","o","true"
"null","<div style=""font-size:60px;"">+</div>","null","html-keyboard-response","449","678153","0.0-3.0-0.223","","fixation","","",""
"2130","Set1/062a.jpg","79","image-keyboard-response","450","680296","0.0-3.0-1.223","","","Repeat","n","false"
"null","<div style=""font-size:60px;"">+</div>","null","html-keyboard-response","451","680840","0.0-3.0-0.224","","fixation","","",""
"722","Set1/156b.jpg","79","image-keyboard-response","452","681569","0.0-3.0-1.224","","","Update","o","true"
"null","<div style=""font-size:60px;"">+</div>","null","html-keyboard-response","453","682105","0.0-3.0-0.225","","fixation","","",""
"657","Set1/186a.jpg","79","image-keyboard-response","454","682771","0.0-3.0-1.225","","","Set_2_Only","o","true"
"null","<div style=""font-size:60px;"">+</div>","null","html-keyboard-response","455","683309","0.0-3.0-0.226","","fixation","","",""
"678","Set1/045a.jpg","79","image-keyboard-response","456","683995","0.0-3.0-1.226","","","Repeat","o","true"
"null","<div style=""font-size:60px;"">+</div>","null","html-keyboard-response","457","684528","0.0-3.0-0.227","","fixation","","",""
"669","Set1/057a.jpg","79","image-keyboard-response","458","685205","0.0-3.0-1.227","","","Repeat","o","true"
"null","<div style=""font-size:60px;"">+</div>","null","html-keyboard-response","459","685716","0.0-3.0-0.228","","fixation","","",""
"651","Set1/184a.jpg","79","image-keyboard-response","460","686376","0.0-3.0-1.228","","","Set_2_Only","o","true"
"null","<div style=""font-size:60px;"">+</div>","null","html-keyboard-response","461","686902","0.0-3.0-0.229","","fixation","","",""
"757","Set1/165a.jpg","79","image-keyboard-response","462","687669","0.0-3.0-1.229","","","Set_2_Only","o","true"
"null","<div style=""font-size:60px;"">+</div>","null","html-keyboard-response","463","688200","0.0-3.0-0.230","","fixation","","",""
"684","Set1/062a.jpg","79","image-keyboard-response","464","688893","0.0-3.0-1.230","","","Repeat","o","true"
"null","<div style=""font-size:60px;"">+</div>","null","html-keyboard-response","465","689419","0.0-3.0-0.231","","fixation","","",""
"665","Set1/152b.jpg","79","image-keyboard-response","466","690092","0.0-3.0-1.231","","","Update","o","true"
"null","<div style=""font-size:60px;"">+</div>","null","html-keyboard-response","467","690621","0.0-3.0-0.232","","fixation","","",""
"633","Set1/053a.jpg","79","image-keyboard-response","468","691263","0.0-3.0-1.232","","","Repeat","o","true"
"null","<div style=""font-size:60px;"">+</div>","null","html-keyboard-response","469","691793","0.0-3.0-0.233","","fixation","","",""
"724","Set1/190a.jpg","79","image-keyboard-response","470","692528","0.0-3.0-1.233","","","Set_2_Only","o","true"
"null","<div style=""font-size:60px;"">+</div>","null","html-keyboard-response","471","693045","0.0-3.0-0.234","","fixation","","",""
"576","Set1/082a.jpg","79","image-keyboard-response","472","693628","0.0-3.0-1.234","","","Repeat","o","true"
"null","<div style=""font-size:60px;"">+</div>","null","html-keyboard-response","473","694153","0.0-3.0-0.235","","fixation","","",""
"714","Set1/085a.jpg","79","image-keyboard-response","474","694876","0.0-3.0-1.235","","","Repeat","o","true"
"null","<div style=""font-size:60px;"">+</div>","null","html-keyboard-response","475","695403","0.0-3.0-0.236","","fixation","","",""
"934","Set1/169a.jpg","79","image-keyboard-response","476","696347","0.0-3.0-1.236","","","Set_2_Only","o","true"
"null","<div style=""font-size:60px;"">+</div>","null","html-keyboard-response","477","696872","0.0-3.0-0.237","","fixation","","",""
"665","Set1/122b.jpg","79","image-keyboard-response","478","697546","0.0-3.0-1.237","","","Update","o","true"
"null","<div style=""font-size:60px;"">+</div>","null","html-keyboard-response","479","698089","0.0-3.0-0.238","","fixation","","",""
"792","Set1/189a.jpg","79","image-keyboard-response","480","698884","0.0-3.0-1.238","","","Set_2_Only","o","true"
"null","<div style=""font-size:60px;"">+</div>","null","html-keyboard-response","481","699418","0.0-3.0-0.239","","fixation","","",""
"658","Set1/115b.jpg","79","image-keyboard-response","482","700085","0.0-3.0-1.239","","","Update","o","true"
"null","<div style=""font-size:60px;"">+</div>","null","html-keyboard-response","483","700630","0.0-3.0-0.240","","fixation","","",""
"3134","Set1/081a.jpg","79","image-keyboard-response","484","703774","0.0-3.0-1.240","","","Repeat","n","false"
"null","<div style=""font-size:60px;"">+</div>","null","html-keyboard-response","485","704292","0.0-3.0-0.241","","fixation","","",""
"2059","Set1/166a.jpg","78","image-keyboard-response","486","706358","0.0-3.0-1.241","","","Set_2_Only","n","true"
"null","<div style=""font-size:60px;"">+</div>","null","html-keyboard-response","487","706888","0.0-3.0-0.242","","fixation","","",""
"2285","Set1/111b.jpg","78","image-keyboard-response","488","709182","0.0-3.0-1.242","","","Update","n","true"
"null","<div style=""font-size:60px;"">+</div>","null","html-keyboard-response","489","709716","0.0-3.0-0.243","","fixation","","",""
"2368","Set1/063a.jpg","79","image-keyboard-response","490","712094","0.0-3.0-1.243","","","Repeat","n","false"
"null","<div style=""font-size:60px;"">+</div>","null","html-keyboard-response","491","712622","0.0-3.0-0.244","","fixation","","",""
"2100","Set1/127b.jpg","79","image-keyboard-response","492","714734","0.0-3.0-1.244","","","Update","n","false"
"null","<div style=""font-size:60px;"">+</div>","null","html-keyboard-response","493","715262","0.0-3.0-0.245","","fixation","","",""
"3201","Set1/077a.jpg","79","image-keyboard-response","494","718475","0.0-3.0-1.245","","","Repeat","n","false"
"null","<div style=""font-size:60px;"">+</div>","null","html-keyboard-response","495","719013","0.0-3.0-0.246","","fixation","","",""
"null","Set1/117b.jpg","null","image-keyboard-response","496","729043","0.0-3.0-1.246","","","Update","n","false"
"null","<div style=""font-size:60px;"">+</div>","null","html-keyboard-response","497","729561","0.0-3.0-0.247","","fixation","","",""
"2239","Set1/110b.jpg","79","image-keyboard-response","498","731809","0.0-3.0-1.247","","","Update","n","false"
"null","<div style=""font-size:60px;"">+</div>","null","html-keyboard-response","499","732339","0.0-3.0-0.248","","fixation","","",""
"2025","Set1/137b.jpg","79","image-keyboard-response","500","734389","0.0-3.0-1.248","","","Update","n","false"
"null","<div style=""font-size:60px;"">+</div>","null","html-keyboard-response","501","734920","0.0-3.0-0.249","","fixation","","",""
"1708","Set1/146b.jpg","79","image-keyboard-response","502","736639","0.0-3.0-1.249","","","Update","n","false"
"null","<div style=""font-size:60px;"">+</div>","null","html-keyboard-response","503","737153","0.0-3.0-0.250","","fixation","","",""
"1482","Set1/164a.jpg","78","image-keyboard-response","504","738645","0.0-3.0-1.250","","","Set_2_Only","n","true"
"null","<div style=""font-size:60px;"">+</div>","null","html-keyboard-response","505","739183","0.0-3.0-0.251","","fixation","","",""
"2613","Set1/132b.jpg","79","image-keyboard-response","506","741807","0.0-3.0-1.251","","","Update","n","false"
"null","<div style=""font-size:60px;"">+</div>","null","html-keyboard-response","507","742340","0.0-3.0-0.252","","fixation","","",""
"null","Set1/136b.jpg","null","image-keyboard-response","508","752363","0.0-3.0-1.252","","","Update","n","false"
"null","<div style=""font-size:60px;"">+</div>","null","html-keyboard-response","509","752886","0.0-3.0-0.253","","fixation","","",""
"1945","Set1/072a.jpg","79","image-keyboard-response","510","754841","0.0-3.0-1.253","","","Repeat","n","false"
"null","<div style=""font-size:60px;"">+</div>","null","html-keyboard-response","511","755372","0.0-3.0-0.254","","fixation","","",""
"1161","Set1/049a.jpg","79","image-keyboard-response","512","756543","0.0-3.0-1.254","","","Repeat","n","false"
"null","<div style=""font-size:60px;"">+</div>","null","html-keyboard-response","513","757074","0.0-3.0-0.255","","fixation","","",""
"2256","Set1/133b.jpg","79","image-keyboard-response","514","759343","0.0-3.0-1.255","","","Update","n","false"
"null","<div style=""font-size:60px;"">+</div>","null","html-keyboard-response","515","759872","0.0-3.0-0.256","","fixation","","",""
"1765","Set1/109b.jpg","79","image-keyboard-response","516","761649","0.0-3.0-1.256","","","Update","n","false"
"null","<div style=""font-size:60px;"">+</div>","null","html-keyboard-response","517","762168","0.0-3.0-0.257","","fixation","","",""
"1798","Set1/121b.jpg","79","image-keyboard-response","518","763978","0.0-3.0-1.257","","","Update","n","false"
"null","<div style=""font-size:60px;"">+</div>","null","html-keyboard-response","519","764512","0.0-3.0-0.258","","fixation","","",""
"915","Set1/111b.jpg","79","image-keyboard-response","520","765437","0.0-3.0-1.258","","","Update","o","true"
"null","<div style=""font-size:60px;"">+</div>","null","html-keyboard-response","521","765950","0.0-3.0-0.259","","fixation","","",""
"2406","Set1/129b.jpg","78","image-keyboard-response","522","768366","0.0-3.0-1.259","","","Update","n","true"
"null","<div style=""font-size:60px;"">+</div>","null","html-keyboard-response","523","768887","0.0-3.0-0.260","","fixation","","",""
"2447","Set1/088a.jpg","79","image-keyboard-response","524","771338","0.0-3.0-1.260","","","Repeat","n","false"
"null","<div style=""font-size:60px;"">+</div>","null","html-keyboard-response","525","771862","0.0-3.0-0.261","","fixation","","",""
"1083","Set1/136b.jpg","78","image-keyboard-response","526","772961","0.0-3.0-1.261","","","Update","o","false"
"null","<div style=""font-size:60px;"">+</div>","null","html-keyboard-response","527","773497","0.0-3.0-0.262","","fixation","","",""
"814","Set1/088a.jpg","79","image-keyboard-response","528","774321","0.0-3.0-1.262","","","Repeat","o","true"
"null","<div style=""font-size:60px;"">+</div>","null","html-keyboard-response","529","774861","0.0-3.0-0.263","","fixation","","",""
"2870","Set1/125b.jpg","79","image-keyboard-response","530","777742","0.0-3.0-1.263","","","Update","n","false"
"null","<div style=""font-size:60px;"">+</div>","null","html-keyboard-response","531","778277","0.0-3.0-0.264","","fixation","","",""
"1955","Set1/054a.jpg","79","image-keyboard-response","532","780242","0.0-3.0-1.264","","","Repeat","n","false"
"null","<div style=""font-size:60px;"">+</div>","null","html-keyboard-response","533","780778","0.0-3.0-0.265","","fixation","","",""
"2230","Set1/099b.jpg","79","image-keyboard-response","534","783017","0.0-3.0-1.265","","","Update","n","false"
"null","<div style=""font-size:60px;"">+</div>","null","html-keyboard-response","535","783543","0.0-3.0-0.266","","fixation","","",""
"944","Set1/166a.jpg","79","image-keyboard-response","536","784499","0.0-3.0-1.266","","","Set_2_Only","o","true"
"null","<div style=""font-size:60px;"">+</div>","null","html-keyboard-response","537","785028","0.0-3.0-0.267","","fixation","","",""
"2154","Set1/093a.jpg","79","image-keyboard-response","538","787193","0.0-3.0-1.267","","","Repeat","n","false"
"null","<div style=""font-size:60px;"">+</div>","null","html-keyboard-response","539","787731","0.0-3.0-0.268","","fixation","","",""
"1476","Set1/060a.jpg","79","image-keyboard-response","540","789217","0.0-3.0-1.268","","","Repeat","n","false"
"null","<div style=""font-size:60px;"">+</div>","null","html-keyboard-response","541","789747","0.0-3.0-0.269","","fixation","","",""
"692","Set1/110b.jpg","79","image-keyboard-response","542","790449","0.0-3.0-1.269","","","Update","o","true"
"null","<div style=""font-size:60px;"">+</div>","null","html-keyboard-response","543","790981","0.0-3.0-0.270","","fixation","","",""
"714","Set1/093a.jpg","79","image-keyboard-response","544","791706","0.0-3.0-1.270","","","Repeat","o","true"
"null","<div style=""font-size:60px;"">+</div>","null","html-keyboard-response","545","792246","0.0-3.0-0.271","","fixation","","",""
"1994","Set1/180a.jpg","78","image-keyboard-response","546","794251","0.0-3.0-1.271","","","Set_2_Only","n","true"
"null","<div style=""font-size:60px;"">+</div>","null","html-keyboard-response","547","794779","0.0-3.0-0.272","","fixation","","",""
"2013","Set1/120b.jpg","79","image-keyboard-response","548","796803","0.0-3.0-1.272","","","Update","n","false"
"null","<div style=""font-size:60px;"">+</div>","null","html-keyboard-response","549","797340","0.0-3.0-0.273","","fixation","","",""
"2763","Set1/178a.jpg","78","image-keyboard-response","550","800119","0.0-3.0-1.273","","","Set_2_Only","n","true"
"null","<div style=""font-size:60px;"">+</div>","null","html-keyboard-response","551","800653","0.0-3.0-0.274","","fixation","","",""
"1395","Set1/079a.jpg","79","image-keyboard-response","552","802059","0.0-3.0-1.274","","","Repeat","n","false"
"null","<div style=""font-size:60px;"">+</div>","null","html-keyboard-response","553","802591","0.0-3.0-0.275","","fixation","","",""
"3001","Set1/151b.jpg","79","image-keyboard-response","554","805604","0.0-3.0-1.275","","","Update","n","false"
"null","<div style=""font-size:60px;"">+</div>","null","html-keyboard-response","555","806137","0.0-3.0-0.276","","fixation","","",""
"null","Set1/181a.jpg","null","image-keyboard-response","556","816156","0.0-3.0-1.276","","","Set_2_Only","n","false"
"null","<div style=""font-size:60px;"">+</div>","null","html-keyboard-response","557","816668","0.0-3.0-0.277","","fixation","","",""
"836","Set1/099b.jpg","79","image-keyboard-response","558","817516","0.0-3.0-1.277","","","Update","o","true"
"null","<div style=""font-size:60px;"">+</div>","null","html-keyboard-response","559","818043","0.0-3.0-0.278","","fixation","","",""
"2678","Set1/102b.jpg","79","image-keyboard-response","560","820732","0.0-3.0-1.278","","","Update","n","false"
"null","<div style=""font-size:60px;"">+</div>","null","html-keyboard-response","561","821262","0.0-3.0-0.279","","fixation","","",""
"1946","Set1/167a.jpg","78","image-keyboard-response","562","823219","0.0-3.0-1.279","","","Set_2_Only","n","true"
"null","<div style=""font-size:60px;"">+</div>","null","html-keyboard-response","563","823730","0.0-3.0-0.280","","fixation","","",""
"666","Set1/102b.jpg","79","image-keyboard-response","564","824427","0.0-3.0-1.280","","","Update","o","true"
"null","<div style=""font-size:60px;"">+</div>","null","html-keyboard-response","565","824965","0.0-3.0-0.281","","fixation","","",""
"3269","Set1/092a.jpg","79","image-keyboard-response","566","828245","0.0-3.0-1.281","","","Repeat","n","false"
"null","<div style=""font-size:60px;"">+</div>","null","html-keyboard-response","567","828777","0.0-3.0-0.282","","fixation","","",""
"654","Set1/081a.jpg","79","image-keyboard-response","568","829444","0.0-3.0-1.282","","","Repeat","o","true"
"null","<div style=""font-size:60px;"">+</div>","null","html-keyboard-response","569","829980","0.0-3.0-0.283","","fixation","","",""
"669","Set1/120b.jpg","79","image-keyboard-response","570","830661","0.0-3.0-1.283","","","Update","o","true"
"null","<div style=""font-size:60px;"">+</div>","null","html-keyboard-response","571","831200","0.0-3.0-0.284","","fixation","","",""
"1792","Set1/076a.jpg","79","image-keyboard-response","572","833004","0.0-3.0-1.284","","","Repeat","n","false"
"null","<div style=""font-size:60px;"">+</div>","null","html-keyboard-response","573","833543","0.0-3.0-0.285","","fixation","","",""
"2465","Set1/033a.jpg","79","image-keyboard-response","574","836021","0.0-3.0-1.285","","","Repeat","n","false"
"null","<div style=""font-size:60px;"">+</div>","null","html-keyboard-response","575","836559","0.0-3.0-0.286","","fixation","","",""
"786","Set1/125b.jpg","79","image-keyboard-response","576","837355","0.0-3.0-1.286","","","Update","o","true"
"null","<div style=""font-size:60px;"">+</div>","null","html-keyboard-response","577","837886","0.0-3.0-0.287","","fixation","","",""
"731","Set1/127b.jpg","79","image-keyboard-response","578","838628","0.0-3.0-1.287","","","Update","o","true"
"null","<div style=""font-size:60px;"">+</div>","null","html-keyboard-response","579","839168","0.0-3.0-0.288","","fixation","","",""
"899","Set1/092a.jpg","79","image-keyboard-response","580","840079","0.0-3.0-1.288","","","Repeat","o","true"
"null","<div style=""font-size:60px;"">+</div>","null","html-keyboard-response","581","840605","0.0-3.0-0.289","","fixation","","",""
"932","Set1/181a.jpg","78","image-keyboard-response","582","841547","0.0-3.0-1.289","","","Set_2_Only","o","false"
"null","<div style=""font-size:60px;"">+</div>","null","html-keyboard-response","583","842058","0.0-3.0-0.290","","fixation","","",""
"3634","Set1/086a.jpg","79","image-keyboard-response","584","845702","0.0-3.0-1.290","","","Repeat","n","false"
"null","<div style=""font-size:60px;"">+</div>","null","html-keyboard-response","585","846215","0.0-3.0-0.291","","fixation","","",""
"681","Set1/109b.jpg","79","image-keyboard-response","586","846907","0.0-3.0-1.291","","","Update","o","true"
"null","<div style=""font-size:60px;"">+</div>","null","html-keyboard-response","587","847419","0.0-3.0-0.292","","fixation","","",""
"735","Set1/167a.jpg","79","image-keyboard-response","588","848165","0.0-3.0-1.292","","","Set_2_Only","o","true"
"null","<div style=""font-size:60px;"">+</div>","null","html-keyboard-response","589","848684","0.0-3.0-0.293","","fixation","","",""
"648","Set1/129b.jpg","79","image-keyboard-response","590","849351","0.0-3.0-1.293","","","Update","o","true"
"null","<div style=""font-size:60px;"">+</div>","null","html-keyboard-response","591","849887","0.0-3.0-0.294","","fixation","","",""
"594","Set1/180a.jpg","79","image-keyboard-response","592","850492","0.0-3.0-1.294","","","Set_2_Only","o","true"
"null","<div style=""font-size:60px;"">+</div>","null","html-keyboard-response","593","851027","0.0-3.0-0.295","","fixation","","",""
"714","Set1/121b.jpg","79","image-keyboard-response","594","851754","0.0-3.0-1.295","","","Update","o","true"
"null","<div style=""font-size:60px;"">+</div>","null","html-keyboard-response","595","852293","0.0-3.0-0.296","","fixation","","",""
"741","Set1/178a.jpg","79","image-keyboard-response","596","853046","0.0-3.0-1.296","","","Set_2_Only","o","true"
"null","<div style=""font-size:60px;"">+</div>","null","html-keyboard-response","597","853575","0.0-3.0-0.297","","fixation","","",""
"2751","Set1/094a.jpg","79","image-keyboard-response","598","856334","0.0-3.0-1.297","","","Repeat","n","false"
"null","<div style=""font-size:60px;"">+</div>","null","html-keyboard-response","599","856857","0.0-3.0-0.298","","fixation","","",""
"741","Set1/137b.jpg","79","image-keyboard-response","600","857614","0.0-3.0-1.298","","","Update","o","true"
"null","<div style=""font-size:60px;"">+</div>","null","html-keyboard-response","601","858153","0.0-3.0-0.299","","fixation","","",""
"705","Set1/060a.jpg","79","image-keyboard-response","602","858887","0.0-3.0-1.299","","","Repeat","o","true"
"null","<div style=""font-size:60px;"">+</div>","null","html-keyboard-response","603","859419","0.0-3.0-0.300","","fixation","","",""
"623","Set1/133b.jpg","79","image-keyboard-response","604","860052","0.0-3.0-1.300","","","Update","o","true"
"null","<div style=""font-size:60px;"">+</div>","null","html-keyboard-response","605","860574","0.0-3.0-0.301","","fixation","","",""
"639","Set1/164a.jpg","79","image-keyboard-response","606","861218","0.0-3.0-1.301","","","Set_2_Only","o","true"
"null","<div style=""font-size:60px;"">+</div>","null","html-keyboard-response","607","861746","0.0-3.0-0.302","","fixation","","",""
"570","Set1/054a.jpg","79","image-keyboard-response","608","862326","0.0-3.0-1.302","","","Repeat","o","true"
"null","<div style=""font-size:60px;"">+</div>","null","html-keyboard-response","609","862856","0.0-3.0-0.303","","fixation","","",""
"1060","Set1/117b.jpg","79","image-keyboard-response","610","863926","0.0-3.0-1.303","","","Update","o","true"
"null","<div style=""font-size:60px;"">+</div>","null","html-keyboard-response","611","864465","0.0-3.0-0.304","","fixation","","",""
"718","Set1/049a.jpg","79","image-keyboard-response","612","865194","0.0-3.0-1.304","","","Repeat","o","true"
"null","<div style=""font-size:60px;"">+</div>","null","html-keyboard-response","613","865732","0.0-3.0-0.305","","fixation","","",""
"759","Set1/132b.jpg","79","image-keyboard-response","614","866501","0.0-3.0-1.305","","","Update","o","true"
"null","<div style=""font-size:60px;"">+</div>","null","html-keyboard-response","615","867028","0.0-3.0-0.306","","fixation","","",""
"809","Set1/151b.jpg","79","image-keyboard-response","616","867850","0.0-3.0-1.306","","","Update","o","true"
"null","<div style=""font-size:60px;"">+</div>","null","html-keyboard-response","617","868387","0.0-3.0-0.307","","fixation","","",""
"977","Set1/086a.jpg","78","image-keyboard-response","618","869375","0.0-3.0-1.307","","","Repeat","o","false"
"null","<div style=""font-size:60px;"">+</div>","null","html-keyboard-response","619","869886","0.0-3.0-0.308","","fixation","","",""
"2361","Set1/160b.jpg","79","image-keyboard-response","620","872253","0.0-3.0-1.308","","","Update","n","false"
"null","<div style=""font-size:60px;"">+</div>","null","html-keyboard-response","621","872793","0.0-3.0-0.309","","fixation","","",""
"728","Set1/094a.jpg","79","image-keyboard-response","622","873531","0.0-3.0-1.309","","","Repeat","o","true"
"null","<div style=""font-size:60px;"">+</div>","null","html-keyboard-response","623","874059","0.0-3.0-0.310","","fixation","","",""
"669","Set1/146b.jpg","79","image-keyboard-response","624","874739","0.0-3.0-1.310","","","Update","o","true"
"null","<div style=""font-size:60px;"">+</div>","null","html-keyboard-response","625","875278","0.0-3.0-0.311","","fixation","","",""
"695","Set1/160b.jpg","79","image-keyboard-response","626","875983","0.0-3.0-1.311","","","Update","o","true"
"null","<div style=""font-size:60px;"">+</div>","null","html-keyboard-response","627","876513","0.0-3.0-0.312","","fixation","","",""
"726","Set1/072a.jpg","79","image-keyboard-response","628","877256","0.0-3.0-1.312","","","Repeat","o","true"
"null","<div style=""font-size:60px;"">+</div>","null","html-keyboard-response","629","877793","0.0-3.0-0.313","","fixation","","",""
"622","Set1/076a.jpg","79","image-keyboard-response","630","878425","0.0-3.0-1.313","","","Repeat","o","true"
"null","<div style=""font-size:60px;"">+</div>","null","html-keyboard-response","631","878965","0.0-3.0-0.314","","fixation","","",""
"610","Set1/079a.jpg","79","image-keyboard-response","632","879585","0.0-3.0-1.314","","","Repeat","o","true"
"null","<div style=""font-size:60px;"">+</div>","null","html-keyboard-response","633","880105","0.0-3.0-0.315","","fixation","","",""
"696","Set1/033a.jpg","79","image-keyboard-response","634","880812","0.0-3.0-1.315","","","Repeat","o","true"
"null","<div style=""font-size:60px;"">+</div>","null","html-keyboard-response","635","881324","0.0-3.0-0.316","","fixation","","",""
"2079","Set1/051a.jpg","79","image-keyboard-response","636","883414","0.0-3.0-1.316","","","Repeat","n","false"
"null","<div style=""font-size:60px;"">+</div>","null","html-keyboard-response","637","883950","0.0-3.0-0.317","","fixation","","",""
"772","Set1/077a.jpg","79","image-keyboard-response","638","884732","0.0-3.0-1.317","","","Repeat","o","true"
"null","<div style=""font-size:60px;"">+</div>","null","html-keyboard-response","639","885247","0.0-3.0-0.318","","fixation","","",""
"727","Set1/051a.jpg","79","image-keyboard-response","640","885985","0.0-3.0-1.318","","","Repeat","o","true"
"null","<div style=""font-size:60px;"">+</div>","null","html-keyboard-response","641","886512","0.0-3.0-0.319","","fixation","","",""
"717","Set1/063a.jpg","79","image-keyboard-response","642","887245","0.0-3.0-1.319","","","Repeat","o","true"
