"rt","stimulus","key_press","trial_type","trial_index","time_elapsed","internal_node_id","responses","test_part","stim_type","correct_response","correct"
"2032","Press any key to begin.","90","html-keyboard-response","0","2039","0.0-0.0","","","","",""
"7499","","","survey-text","1","9541","0.0-1.0","{""Q0"":""Set2201200\"""",""Q1"":""""}","","","",""
"19644","<p>In this experiment you will see a series of everyday objects presented one at a time at the center of the screen. Each image will be presented twice.</p><p>The first time you see the image, press the N key to indicat that it is a NEW image. The second time you see the image, press the O key to indicate that it is an OLD image.</p><p>Some of the images will be repeats from the first session of this task you did yesterday. I want you to treat those images as 'OLD' if you remember seeing them before. Some of the images will be very similar but not identical to an image that you have seen in the previous set. I want you to treat those images as 'NEW' the first time you see them and 'OLD' the second time.</p><div style='width: 700px;'></div><p>Press any key to begin.</p>","90","html-keyboard-response","2","29186","0.0-2.0","","","","",""
"null","<div style=""font-size:60px;"">+</div>","null","html-keyboard-response","3","31690","0.0-3.0-0.0","","fixation","","",""
"2327","Set1/037a.jpg","79","image-keyboard-response","4","34020","0.0-3.0-1.0","","","Repeat","n","false"
"null","<div style=""font-size:60px;"">+</div>","null","html-keyboard-response","5","34522","0.0-3.0-0.1","","fixation","","",""
"1442","Set1/095a.jpg","78","image-keyboard-response","6","35965","0.0-3.0-1.1","","","Repeat","n","true"
"null","<div style=""font-size:60px;"">+</div>","null","html-keyboard-response","7","36467","0.0-3.0-0.2","","fixation","","",""
"1802","Set1/080a.jpg","78","image-keyboard-response","8","38270","0.0-3.0-1.2","","","Repeat","n","true"
"null","<div style=""font-size:60px;"">+</div>","null","html-keyboard-response","9","38772","0.0-3.0-0.3","","fixation","","",""
"2396","Set1/142b.jpg","78","image-keyboard-response","10","41170","0.0-3.0-1.3","","","Update","n","true"
"null","<div style=""font-size:60px;"">+</div>","null","html-keyboard-response","11","41671","0.0-3.0-0.4","","fixation","","",""
"1283","Set1/179a.jpg","78","image-keyboard-response","12","42955","0.0-3.0-1.4","","","Set_2_Only","n","true"
"null","<div style=""font-size:60px;"">+</div>","null","html-keyboard-response","13","43457","0.0-3.0-0.5","","fixation","","",""
"790","Set1/039a.jpg","79","image-keyboard-response","14","44248","0.0-3.0-1.5","","","Repeat","n","false"
"null","<div style=""font-size:60px;"">+</div>","null","html-keyboard-response","15","44750","0.0-3.0-0.6","","fixation","","",""
"1016","Set1/172a.jpg","78","image-keyboard-response","16","45767","0.0-3.0-1.6","","","Set_2_Only","n","true"
"null","<div style=""font-size:60px;"">+</div>","null","html-keyboard-response","17","46268","0.0-3.0-0.7","","fixation","","",""
"1627","Set1/075a.jpg","79","image-keyboard-response","18","47896","0.0-3.0-1.7","","","Repeat","n","false"
"null","<div style=""font-size:60px;"">+</div>","null","html-keyboard-response","19","48398","0.0-3.0-0.8","","fixation","","",""
"1437","Set1/090a.jpg","78","image-keyboard-response","20","49836","0.0-3.0-1.8","","","Repeat","n","true"
"null","<div style=""font-size:60px;"">+</div>","null","html-keyboard-response","21","50338","0.0-3.0-0.9","","fixation","","",""
"1759","Set1/148b.jpg","79","image-keyboard-response","22","52099","0.0-3.0-1.9","","","Update","n","false"
"null","<div style=""font-size:60px;"">+</div>","null","html-keyboard-response","23","52600","0.0-3.0-0.10","","fixation","","",""
"1844","Set1/172a.jpg","79","image-keyboard-response","24","54445","0.0-3.0-1.10","","","Set_2_Only","o","true"
"null","<div style=""font-size:60px;"">+</div>","null","html-keyboard-response","25","54948","0.0-3.0-0.11","","fixation","","",""
"1977","Set1/035a.jpg","79","image-keyboard-response","26","56926","0.0-3.0-1.11","","","Repeat","n","false"
"null","<div style=""font-size:60px;"">+</div>","null","html-keyboard-response","27","57428","0.0-3.0-0.12","","fixation","","",""
"1494","Set1/170a.jpg","78","image-keyboard-response","28","58923","0.0-3.0-1.12","","","Set_2_Only","n","true"
"null","<div style=""font-size:60px;"">+</div>","null","html-keyboard-response","29","59425","0.0-3.0-0.13","","fixation","","",""
"1610","Set1/179a.jpg","79","image-keyboard-response","30","61036","0.0-3.0-1.13","","","Set_2_Only","o","true"
"null","<div style=""font-size:60px;"">+</div>","null","html-keyboard-response","31","61537","0.0-3.0-0.14","","fixation","","",""
"1411","Set1/153b.jpg","78","image-keyboard-response","32","62949","0.0-3.0-1.14","","","Update","n","true"
"null","<div style=""font-size:60px;"">+</div>","null","html-keyboard-response","33","63451","0.0-3.0-0.15","","fixation","","",""
"1278","Set1/083a.jpg","79","image-keyboard-response","34","64730","0.0-3.0-1.15","","","Repeat","n","false"
"null","<div style=""font-size:60px;"">+</div>","null","html-keyboard-response","35","65232","0.0-3.0-0.16","","fixation","","",""
"1109","Set1/126b.jpg","79","image-keyboard-response","36","66342","0.0-3.0-1.16","","","Update","n","false"
"null","<div style=""font-size:60px;"">+</div>","null","html-keyboard-response","37","66843","0.0-3.0-0.17","","fixation","","",""
"1199","Set1/135b.jpg","78","image-keyboard-response","38","68044","0.0-3.0-1.17","","","Update","n","true"
"null","<div style=""font-size:60px;"">+</div>","null","html-keyboard-response","39","68546","0.0-3.0-0.18","","fixation","","",""
"1332","Set1/108b.jpg","79","image-keyboard-response","40","69880","0.0-3.0-1.18","","","Update","n","false"
"null","<div style=""font-size:60px;"">+</div>","null","html-keyboard-response","41","70382","0.0-3.0-0.19","","fixation","","",""
"1921","Set1/142b.jpg","78","image-keyboard-response","42","72303","0.0-3.0-1.19","","","Update","o","false"
"null","<div style=""font-size:60px;"">+</div>","null","html-keyboard-response","43","72805","0.0-3.0-0.20","","fixation","","",""
"2431","Set1/138b.jpg","79","image-keyboard-response","44","75237","0.0-3.0-1.20","","","Update","n","false"
"null","<div style=""font-size:60px;"">+</div>","null","html-keyboard-response","45","75739","0.0-3.0-0.21","","fixation","","",""
"1475","Set1/171a.jpg","78","image-keyboard-response","46","77216","0.0-3.0-1.21","","","Set_2_Only","n","true"
"null","<div style=""font-size:60px;"">+</div>","null","html-keyboard-response","47","77718","0.0-3.0-0.22","","fixation","","",""
"2125","Set1/148b.jpg","79","image-keyboard-response","48","79845","0.0-3.0-1.22","","","Update","o","true"
"null","<div style=""font-size:60px;"">+</div>","null","html-keyboard-response","49","80347","0.0-3.0-0.23","","fixation","","",""
"1115","Set1/083a.jpg","79","image-keyboard-response","50","81462","0.0-3.0-1.23","","","Repeat","o","true"
"null","<div style=""font-size:60px;"">+</div>","null","html-keyboard-response","51","81964","0.0-3.0-0.24","","fixation","","",""
"1727","Set1/141b.jpg","78","image-keyboard-response","52","83692","0.0-3.0-1.24","","","Update","n","true"
"null","<div style=""font-size:60px;"">+</div>","null","html-keyboard-response","53","84194","0.0-3.0-0.25","","fixation","","",""
"1405","Set1/123b.jpg","79","image-keyboard-response","54","85601","0.0-3.0-1.25","","","Update","n","false"
"null","<div style=""font-size:60px;"">+</div>","null","html-keyboard-response","55","86102","0.0-3.0-0.26","","fixation","","",""
"1330","Set1/145b.jpg","79","image-keyboard-response","56","87433","0.0-3.0-1.26","","","Update","n","false"
"null","<div style=""font-size:60px;"">+</div>","null","html-keyboard-response","57","87935","0.0-3.0-0.27","","fixation","","",""
"1258","Set1/175a.jpg","78","image-keyboard-response","58","89194","0.0-3.0-1.27","","","Set_2_Only","n","true"
"null","<div style=""font-size:60px;"">+</div>","null","html-keyboard-response","59","89695","0.0-3.0-0.28","","fixation","","",""
"1100","Set1/177a.jpg","78","image-keyboard-response","60","90796","0.0-3.0-1.28","","","Set_2_Only","n","true"
"null","<div style=""font-size:60px;"">+</div>","null","html-keyboard-response","61","91298","0.0-3.0-0.29","","fixation","","",""
"1046","Set1/119b.jpg","78","image-keyboard-response","62","92345","0.0-3.0-1.29","","","Update","n","true"
"null","<div style=""font-size:60px;"">+</div>","null","html-keyboard-response","63","92848","0.0-3.0-0.30","","fixation","","",""
"1632","Set1/177a.jpg","79","image-keyboard-response","64","94480","0.0-3.0-1.30","","","Set_2_Only","o","true"
"null","<div style=""font-size:60px;"">+</div>","null","html-keyboard-response","65","94982","0.0-3.0-0.31","","fixation","","",""
"1534","Set1/038a.jpg","78","image-keyboard-response","66","96518","0.0-3.0-1.31","","","Repeat","n","true"
"null","<div style=""font-size:60px;"">+</div>","null","html-keyboard-response","67","97020","0.0-3.0-0.32","","fixation","","",""
"837","Set1/035a.jpg","79","image-keyboard-response","68","97858","0.0-3.0-1.32","","","Repeat","o","true"
"null","<div style=""font-size:60px;"">+</div>","null","html-keyboard-response","69","98360","0.0-3.0-0.33","","fixation","","",""
"908","Set1/171a.jpg","79","image-keyboard-response","70","99270","0.0-3.0-1.33","","","Set_2_Only","o","true"
"null","<div style=""font-size:60px;"">+</div>","null","html-keyboard-response","71","99772","0.0-3.0-0.34","","fixation","","",""
"1478","Set1/157b.jpg","78","image-keyboard-response","72","101251","0.0-3.0-1.34","","","Update","n","true"
"null","<div style=""font-size:60px;"">+</div>","null","html-keyboard-response","73","101753","0.0-3.0-0.35","","fixation","","",""
"1054","Set1/170a.jpg","79","image-keyboard-response","74","102809","0.0-3.0-1.35","","","Set_2_Only","o","true"
"null","<div style=""font-size:60px;"">+</div>","null","html-keyboard-response","75","103311","0.0-3.0-0.36","","fixation","","",""
"1148","Set1/135b.jpg","79","image-keyboard-response","76","104460","0.0-3.0-1.36","","","Update","o","true"
"null","<div style=""font-size:60px;"">+</div>","null","html-keyboard-response","77","104962","0.0-3.0-0.37","","fixation","","",""
"1132","Set1/090a.jpg","79","image-keyboard-response","78","106095","0.0-3.0-1.37","","","Repeat","o","true"
"null","<div style=""font-size:60px;"">+</div>","null","html-keyboard-response","79","106597","0.0-3.0-0.38","","fixation","","",""
"1321","Set1/095a.jpg","79","image-keyboard-response","80","107919","0.0-3.0-1.38","","","Repeat","o","true"
"null","<div style=""font-size:60px;"">+</div>","null","html-keyboard-response","81","108421","0.0-3.0-0.39","","fixation","","",""
"961","Set1/108b.jpg","79","image-keyboard-response","82","109382","0.0-3.0-1.39","","","Update","o","true"
"null","<div style=""font-size:60px;"">+</div>","null","html-keyboard-response","83","109884","0.0-3.0-0.40","","fixation","","",""
"1285","Set1/040a.jpg","78","image-keyboard-response","84","111170","0.0-3.0-1.40","","","Repeat","n","true"
"null","<div style=""font-size:60px;"">+</div>","null","html-keyboard-response","85","111672","0.0-3.0-0.41","","fixation","","",""
"1006","Set1/058a.jpg","79","image-keyboard-response","86","112679","0.0-3.0-1.41","","","Repeat","n","false"
"null","<div style=""font-size:60px;"">+</div>","null","html-keyboard-response","87","113181","0.0-3.0-0.42","","fixation","","",""
"1330","Set1/140b.jpg","79","image-keyboard-response","88","114513","0.0-3.0-1.42","","","Update","n","false"
"null","<div style=""font-size:60px;"">+</div>","null","html-keyboard-response","89","115015","0.0-3.0-0.43","","fixation","","",""
"1060","Set1/037a.jpg","79","image-keyboard-response","90","116075","0.0-3.0-1.43","","","Repeat","o","true"
"null","<div style=""font-size:60px;"">+</div>","null","html-keyboard-response","91","116577","0.0-3.0-0.44","","fixation","","",""
"1022","Set1/153b.jpg","79","image-keyboard-response","92","117601","0.0-3.0-1.44","","","Update","o","true"
"null","<div style=""font-size:60px;"">+</div>","null","html-keyboard-response","93","118102","0.0-3.0-0.45","","fixation","","",""
"1231","Set1/168a.jpg","78","image-keyboard-response","94","119334","0.0-3.0-1.45","","","Set_2_Only","n","true"
"null","<div style=""font-size:60px;"">+</div>","null","html-keyboard-response","95","119835","0.0-3.0-0.46","","fixation","","",""
"1285","Set1/091a.jpg","79","image-keyboard-response","96","121121","0.0-3.0-1.46","","","Repeat","n","false"
"null","<div style=""font-size:60px;"">+</div>","null","html-keyboard-response","97","121624","0.0-3.0-0.47","","fixation","","",""
"1121","Set1/119b.jpg","79","image-keyboard-response","98","122746","0.0-3.0-1.47","","","Update","o","true"
"null","<div style=""font-size:60px;"">+</div>","null","html-keyboard-response","99","123248","0.0-3.0-0.48","","fixation","","",""
"1292","Set1/168a.jpg","78","image-keyboard-response","100","124541","0.0-3.0-1.48","","","Set_2_Only","o","false"
"null","<div style=""font-size:60px;"">+</div>","null","html-keyboard-response","101","125041","0.0-3.0-0.49","","fixation","","",""
"880","Set1/038a.jpg","79","image-keyboard-response","102","125923","0.0-3.0-1.49","","","Repeat","o","true"
"null","<div style=""font-size:60px;"">+</div>","null","html-keyboard-response","103","126425","0.0-3.0-0.50","","fixation","","",""
"1343","Set1/154b.jpg","79","image-keyboard-response","104","127768","0.0-3.0-1.50","","","Update","n","false"
"null","<div style=""font-size:60px;"">+</div>","null","html-keyboard-response","105","128270","0.0-3.0-0.51","","fixation","","",""
"1557","Set1/067a.jpg","79","image-keyboard-response","106","129828","0.0-3.0-1.51","","","Repeat","n","false"
"null","<div style=""font-size:60px;"">+</div>","null","html-keyboard-response","107","130330","0.0-3.0-0.52","","fixation","","",""
"832","Set1/080a.jpg","79","image-keyboard-response","108","131163","0.0-3.0-1.52","","","Repeat","o","true"
"null","<div style=""font-size:60px;"">+</div>","null","html-keyboard-response","109","131665","0.0-3.0-0.53","","fixation","","",""
"1651","Set1/154b.jpg","78","image-keyboard-response","110","133317","0.0-3.0-1.53","","","Update","o","false"
"null","<div style=""font-size:60px;"">+</div>","null","html-keyboard-response","111","133819","0.0-3.0-0.54","","fixation","","",""
"1079","Set1/087a.jpg","79","image-keyboard-response","112","134899","0.0-3.0-1.54","","","Repeat","n","false"
"null","<div style=""font-size:60px;"">+</div>","null","html-keyboard-response","113","135400","0.0-3.0-0.55","","fixation","","",""
"1203","Set1/149b.jpg","79","image-keyboard-response","114","136605","0.0-3.0-1.55","","","Update","n","false"
"null","<div style=""font-size:60px;"">+</div>","null","html-keyboard-response","115","137107","0.0-3.0-0.56","","fixation","","",""
"995","Set1/173a.jpg","78","image-keyboard-response","116","138102","0.0-3.0-1.56","","","Set_2_Only","n","true"
"null","<div style=""font-size:60px;"">+</div>","null","html-keyboard-response","117","138604","0.0-3.0-0.57","","fixation","","",""
"945","Set1/040a.jpg","79","image-keyboard-response","118","139549","0.0-3.0-1.57","","","Repeat","o","true"
"null","<div style=""font-size:60px;"">+</div>","null","html-keyboard-response","119","140051","0.0-3.0-0.58","","fixation","","",""
"835","Set1/058a.jpg","79","image-keyboard-response","120","140887","0.0-3.0-1.58","","","Repeat","o","true"
"null","<div style=""font-size:60px;"">+</div>","null","html-keyboard-response","121","141389","0.0-3.0-0.59","","fixation","","",""
"967","Set1/173a.jpg","79","image-keyboard-response","122","142356","0.0-3.0-1.59","","","Set_2_Only","o","true"
"null","<div style=""font-size:60px;"">+</div>","null","html-keyboard-response","123","142858","0.0-3.0-0.60","","fixation","","",""
"1029","Set1/140b.jpg","79","image-keyboard-response","124","143888","0.0-3.0-1.60","","","Update","o","true"
"null","<div style=""font-size:60px;"">+</div>","null","html-keyboard-response","125","144390","0.0-3.0-0.61","","fixation","","",""
"964","Set1/187a.jpg","78","image-keyboard-response","126","145355","0.0-3.0-1.61","","","Set_2_Only","n","true"
"null","<div style=""font-size:60px;"">+</div>","null","html-keyboard-response","127","145858","0.0-3.0-0.62","","fixation","","",""
"1000","Set1/067a.jpg","79","image-keyboard-response","128","146858","0.0-3.0-1.62","","","Repeat","o","true"
"null","<div style=""font-size:60px;"">+</div>","null","html-keyboard-response","129","147359","0.0-3.0-0.63","","fixation","","",""
"792","Set1/126b.jpg","79","image-keyboard-response","130","148152","0.0-3.0-1.63","","","Update","o","true"
"null","<div style=""font-size:60px;"">+</div>","null","html-keyboard-response","131","148654","0.0-3.0-0.64","","fixation","","",""
"921","Set1/188a.jpg","78","image-keyboard-response","132","149576","0.0-3.0-1.64","","","Set_2_Only","n","true"
"null","<div style=""font-size:60px;"">+</div>","null","html-keyboard-response","133","150078","0.0-3.0-0.65","","fixation","","",""
"992","Set1/145b.jpg","79","image-keyboard-response","134","151072","0.0-3.0-1.65","","","Update","o","true"
"null","<div style=""font-size:60px;"">+</div>","null","html-keyboard-response","135","151573","0.0-3.0-0.66","","fixation","","",""
"1176","Set1/075a.jpg","79","image-keyboard-response","136","152750","0.0-3.0-1.66","","","Repeat","o","true"
"null","<div style=""font-size:60px;"">+</div>","null","html-keyboard-response","137","153252","0.0-3.0-0.67","","fixation","","",""
"1126","Set1/059a.jpg","79","image-keyboard-response","138","154379","0.0-3.0-1.67","","","Repeat","n","false"
"null","<div style=""font-size:60px;"">+</div>","null","html-keyboard-response","139","154881","0.0-3.0-0.68","","fixation","","",""
"1088","Set1/149b.jpg","79","image-keyboard-response","140","155970","0.0-3.0-1.68","","","Update","o","true"
"null","<div style=""font-size:60px;"">+</div>","null","html-keyboard-response","141","156472","0.0-3.0-0.69","","fixation","","",""
"700","Set1/087a.jpg","79","image-keyboard-response","142","157173","0.0-3.0-1.69","","","Repeat","o","true"
"null","<div style=""font-size:60px;"">+</div>","null","html-keyboard-response","143","157675","0.0-3.0-0.70","","fixation","","",""
"1628","Set1/187a.jpg","79","image-keyboard-response","144","159304","0.0-3.0-1.70","","","Set_2_Only","o","true"
"null","<div style=""font-size:60px;"">+</div>","null","html-keyboard-response","145","159806","0.0-3.0-0.71","","fixation","","",""
"933","Set1/059a.jpg","79","image-keyboard-response","146","160740","0.0-3.0-1.71","","","Repeat","o","true"
"null","<div style=""font-size:60px;"">+</div>","null","html-keyboard-response","147","161242","0.0-3.0-0.72","","fixation","","",""
"996","Set1/157b.jpg","79","image-keyboard-response","148","162238","0.0-3.0-1.72","","","Update","o","true"
"null","<div style=""font-size:60px;"">+</div>","null","html-keyboard-response","149","162740","0.0-3.0-0.73","","fixation","","",""
"962","Set1/123b.jpg","79","image-keyboard-response","150","163704","0.0-3.0-1.73","","","Update","o","true"
"null","<div style=""font-size:60px;"">+</div>","null","html-keyboard-response","151","164205","0.0-3.0-0.74","","fixation","","",""
"1076","Set1/175a.jpg","79","image-keyboard-response","152","165282","0.0-3.0-1.74","","","Set_2_Only","o","true"
"null","<div style=""font-size:60px;"">+</div>","null","html-keyboard-response","153","165784","0.0-3.0-0.75","","fixation","","",""
"1429","Set1/188a.jpg","79","image-keyboard-response","154","167215","0.0-3.0-1.75","","","Set_2_Only","o","true"
"null","<div style=""font-size:60px;"">+</div>","null","html-keyboard-response","155","167716","0.0-3.0-0.76","","fixation","","",""
"1119","Set1/039a.jpg","79","image-keyboard-response","156","168837","0.0-3.0-1.76","","","Repeat","o","true"
"null","<div style=""font-size:60px;"">+</div>","null","html-keyboard-response","157","169338","0.0-3.0-0.77","","fixation","","",""
"1517","Set1/141b.jpg","79","image-keyboard-response","158","170856","0.0-3.0-1.77","","","Update","o","true"
"null","<div style=""font-size:60px;"">+</div>","null","html-keyboard-response","159","171358","0.0-3.0-0.78","","fixation","","",""
"727","Set1/091a.jpg","79","image-keyboard-response","160","172086","0.0-3.0-1.78","","","Repeat","o","true"
"null","<div style=""font-size:60px;"">+</div>","null","html-keyboard-response","161","172588","0.0-3.0-0.79","","fixation","","",""
"911","Set1/138b.jpg","79","image-keyboard-response","162","173500","0.0-3.0-1.79","","","Update","o","true"
"null","<div style=""font-size:60px;"">+</div>","null","html-keyboard-response","163","174001","0.0-3.0-0.80","","fixation","","",""
"1309","Set1/055a.jpg","78","image-keyboard-response","164","175311","0.0-3.0-1.80","","","Repeat","n","true"
"null","<div style=""font-size:60px;"">+</div>","null","html-keyboard-response","165","175813","0.0-3.0-0.81","","fixation","","",""
"1722","Set1/128b.jpg","78","image-keyboard-response","166","177536","0.0-3.0-1.81","","","Update","n","true"
"null","<div style=""font-size:60px;"">+</div>","null","html-keyboard-response","167","178038","0.0-3.0-0.82","","fixation","","",""
"1167","Set1/046a.jpg","79","image-keyboard-response","168","179207","0.0-3.0-1.82","","","Repeat","n","false"
"null","<div style=""font-size:60px;"">+</div>","null","html-keyboard-response","169","179709","0.0-3.0-0.83","","fixation","","",""
"1214","Set1/139b.jpg","79","image-keyboard-response","170","180923","0.0-3.0-1.83","","","Update","n","false"
"null","<div style=""font-size:60px;"">+</div>","null","html-keyboard-response","171","181425","0.0-3.0-0.84","","fixation","","",""
"1266","Set1/084a.jpg","79","image-keyboard-response","172","182692","0.0-3.0-1.84","","","Repeat","n","false"
"null","<div style=""font-size:60px;"">+</div>","null","html-keyboard-response","173","183194","0.0-3.0-0.85","","fixation","","",""
"1075","Set1/147b.jpg","78","image-keyboard-response","174","184271","0.0-3.0-1.85","","","Update","n","true"
"null","<div style=""font-size:60px;"">+</div>","null","html-keyboard-response","175","184773","0.0-3.0-0.86","","fixation","","",""
"1470","Set1/176a.jpg","78","image-keyboard-response","176","186245","0.0-3.0-1.86","","","Set_2_Only","n","true"
"null","<div style=""font-size:60px;"">+</div>","null","html-keyboard-response","177","186747","0.0-3.0-0.87","","fixation","","",""
"1201","Set1/042a.jpg","79","image-keyboard-response","178","187950","0.0-3.0-1.87","","","Repeat","n","false"
"null","<div style=""font-size:60px;"">+</div>","null","html-keyboard-response","179","188451","0.0-3.0-0.88","","fixation","","",""
"1232","Set1/114b.jpg","79","image-keyboard-response","180","189684","0.0-3.0-1.88","","","Update","n","false"
"null","<div style=""font-size:60px;"">+</div>","null","html-keyboard-response","181","190186","0.0-3.0-0.89","","fixation","","",""
"968","Set1/064a.jpg","79","image-keyboard-response","182","191155","0.0-3.0-1.89","","","Repeat","n","false"
"null","<div style=""font-size:60px;"">+</div>","null","html-keyboard-response","183","191657","0.0-3.0-0.90","","fixation","","",""
"1208","Set1/036a.jpg","79","image-keyboard-response","184","192866","0.0-3.0-1.90","","","Repeat","n","false"
"null","<div style=""font-size:60px;"">+</div>","null","html-keyboard-response","185","193368","0.0-3.0-0.91","","fixation","","",""
"809","Set1/139b.jpg","79","image-keyboard-response","186","194178","0.0-3.0-1.91","","","Update","o","true"
"null","<div style=""font-size:60px;"">+</div>","null","html-keyboard-response","187","194680","0.0-3.0-0.92","","fixation","","",""
"796","Set1/128b.jpg","79","image-keyboard-response","188","195477","0.0-3.0-1.92","","","Update","o","true"
"null","<div style=""font-size:60px;"">+</div>","null","html-keyboard-response","189","195979","0.0-3.0-0.93","","fixation","","",""
"1141","Set1/044a.jpg","78","image-keyboard-response","190","197121","0.0-3.0-1.93","","","Repeat","n","true"
"null","<div style=""font-size:60px;"">+</div>","null","html-keyboard-response","191","197623","0.0-3.0-0.94","","fixation","","",""
"1275","Set1/162a.jpg","78","image-keyboard-response","192","198899","0.0-3.0-1.94","","","Set_2_Only","n","true"
"null","<div style=""font-size:60px;"">+</div>","null","html-keyboard-response","193","199401","0.0-3.0-0.95","","fixation","","",""
"1059","Set1/074a.jpg","79","image-keyboard-response","194","200461","0.0-3.0-1.95","","","Repeat","n","false"
"null","<div style=""font-size:60px;"">+</div>","null","html-keyboard-response","195","200963","0.0-3.0-0.96","","fixation","","",""
"841","Set1/114b.jpg","79","image-keyboard-response","196","201805","0.0-3.0-1.96","","","Update","o","true"
"null","<div style=""font-size:60px;"">+</div>","null","html-keyboard-response","197","202306","0.0-3.0-0.97","","fixation","","",""
"1115","Set1/159b.jpg","78","image-keyboard-response","198","203422","0.0-3.0-1.97","","","Update","n","true"
"null","<div style=""font-size:60px;"">+</div>","null","html-keyboard-response","199","203924","0.0-3.0-0.98","","fixation","","",""
"1376","Set1/143b.jpg","78","image-keyboard-response","200","205301","0.0-3.0-1.98","","","Update","n","true"
"null","<div style=""font-size:60px;"">+</div>","null","html-keyboard-response","201","205803","0.0-3.0-0.99","","fixation","","",""
"1139","Set1/103b.jpg","79","image-keyboard-response","202","206944","0.0-3.0-1.99","","","Update","n","false"
"null","<div style=""font-size:60px;"">+</div>","null","html-keyboard-response","203","207446","0.0-3.0-0.100","","fixation","","",""
"1597","Set1/047a.jpg","79","image-keyboard-response","204","209044","0.0-3.0-1.100","","","Repeat","n","false"
"null","<div style=""font-size:60px;"">+</div>","null","html-keyboard-response","205","209546","0.0-3.0-0.101","","fixation","","",""
"758","Set1/064a.jpg","79","image-keyboard-response","206","210304","0.0-3.0-1.101","","","Repeat","o","true"
"null","<div style=""font-size:60px;"">+</div>","null","html-keyboard-response","207","210806","0.0-3.0-0.102","","fixation","","",""
"1013","Set1/191a.jpg","78","image-keyboard-response","208","211821","0.0-3.0-1.102","","","Set_2_Only","n","true"
"null","<div style=""font-size:60px;"">+</div>","null","html-keyboard-response","209","212322","0.0-3.0-0.103","","fixation","","",""
"850","Set1/071a.jpg","79","image-keyboard-response","210","213172","0.0-3.0-1.103","","","Repeat","n","false"
"null","<div style=""font-size:60px;"">+</div>","null","html-keyboard-response","211","213674","0.0-3.0-0.104","","fixation","","",""
"1230","Set1/096a.jpg","79","image-keyboard-response","212","214906","0.0-3.0-1.104","","","Repeat","n","false"
"null","<div style=""font-size:60px;"">+</div>","null","html-keyboard-response","213","215406","0.0-3.0-0.105","","fixation","","",""
"805","Set1/098b.jpg","79","image-keyboard-response","214","216212","0.0-3.0-1.105","","","Update","n","false"
"null","<div style=""font-size:60px;"">+</div>","null","html-keyboard-response","215","216714","0.0-3.0-0.106","","fixation","","",""
"1140","Set1/106b.jpg","78","image-keyboard-response","216","217855","0.0-3.0-1.106","","","Update","n","true"
"null","<div style=""font-size:60px;"">+</div>","null","html-keyboard-response","217","218357","0.0-3.0-0.107","","fixation","","",""
"1009","Set1/159b.jpg","79","image-keyboard-response","218","219367","0.0-3.0-1.107","","","Update","o","true"
"null","<div style=""font-size:60px;"">+</div>","null","html-keyboard-response","219","219868","0.0-3.0-0.108","","fixation","","",""
"747","Set1/071a.jpg","79","image-keyboard-response","220","220617","0.0-3.0-1.108","","","Repeat","o","true"
"null","<div style=""font-size:60px;"">+</div>","null","html-keyboard-response","221","221119","0.0-3.0-0.109","","fixation","","",""
"706","Set1/047a.jpg","79","image-keyboard-response","222","221825","0.0-3.0-1.109","","","Repeat","o","true"
"null","<div style=""font-size:60px;"">+</div>","null","html-keyboard-response","223","222327","0.0-3.0-0.110","","fixation","","",""
"1308","Set1/144b.jpg","79","image-keyboard-response","224","223637","0.0-3.0-1.110","","","Update","n","false"
"null","<div style=""font-size:60px;"">+</div>","null","html-keyboard-response","225","224139","0.0-3.0-0.111","","fixation","","",""
"1140","Set1/069a.jpg","79","image-keyboard-response","226","225279","0.0-3.0-1.111","","","Repeat","n","false"
"null","<div style=""font-size:60px;"">+</div>","null","html-keyboard-response","227","225781","0.0-3.0-0.112","","fixation","","",""
"1328","Set1/034a.jpg","79","image-keyboard-response","228","227110","0.0-3.0-1.112","","","Repeat","n","false"
"null","<div style=""font-size:60px;"">+</div>","null","html-keyboard-response","229","227611","0.0-3.0-0.113","","fixation","","",""
"728","Set1/050a.jpg","79","image-keyboard-response","230","228341","0.0-3.0-1.113","","","Repeat","n","false"
"null","<div style=""font-size:60px;"">+</div>","null","html-keyboard-response","231","228842","0.0-3.0-0.114","","fixation","","",""
"1302","Set1/068a.jpg","78","image-keyboard-response","232","230146","0.0-3.0-1.114","","","Repeat","n","true"
"null","<div style=""font-size:60px;"">+</div>","null","html-keyboard-response","233","230648","0.0-3.0-0.115","","fixation","","",""
"1907","Set1/130b.jpg","78","image-keyboard-response","234","232556","0.0-3.0-1.115","","","Update","n","true"
"null","<div style=""font-size:60px;"">+</div>","null","html-keyboard-response","235","233058","0.0-3.0-0.116","","fixation","","",""
"751","Set1/046a.jpg","79","image-keyboard-response","236","233809","0.0-3.0-1.116","","","Repeat","o","true"
"null","<div style=""font-size:60px;"">+</div>","null","html-keyboard-response","237","234311","0.0-3.0-0.117","","fixation","","",""
"1546","Set1/073a.jpg","78","image-keyboard-response","238","235858","0.0-3.0-1.117","","","Repeat","n","true"
"null","<div style=""font-size:60px;"">+</div>","null","html-keyboard-response","239","236360","0.0-3.0-0.118","","fixation","","",""
"1177","Set1/078a.jpg","79","image-keyboard-response","240","237539","0.0-3.0-1.118","","","Repeat","n","false"
"null","<div style=""font-size:60px;"">+</div>","null","html-keyboard-response","241","238040","0.0-3.0-0.119","","fixation","","",""
"893","Set1/147b.jpg","79","image-keyboard-response","242","238934","0.0-3.0-1.119","","","Update","o","true"
"null","<div style=""font-size:60px;"">+</div>","null","html-keyboard-response","243","239436","0.0-3.0-0.120","","fixation","","",""
"768","Set1/066a.jpg","79","image-keyboard-response","244","240205","0.0-3.0-1.120","","","Repeat","n","false"
"null","<div style=""font-size:60px;"">+</div>","null","html-keyboard-response","245","240707","0.0-3.0-0.121","","fixation","","",""
"987","Set1/106b.jpg","79","image-keyboard-response","246","241695","0.0-3.0-1.121","","","Update","o","true"
"null","<div style=""font-size:60px;"">+</div>","null","html-keyboard-response","247","242197","0.0-3.0-0.122","","fixation","","",""
"1887","Set1/112b.jpg","78","image-keyboard-response","248","244085","0.0-3.0-1.122","","","Update","n","true"
"null","<div style=""font-size:60px;"">+</div>","null","html-keyboard-response","249","244587","0.0-3.0-0.123","","fixation","","",""
"1146","Set1/185a.jpg","78","image-keyboard-response","250","245735","0.0-3.0-1.123","","","Set_2_Only","n","true"
"null","<div style=""font-size:60px;"">+</div>","null","html-keyboard-response","251","246237","0.0-3.0-0.124","","fixation","","",""
"1275","Set1/036a.jpg","79","image-keyboard-response","252","247513","0.0-3.0-1.124","","","Repeat","o","true"
"null","<div style=""font-size:60px;"">+</div>","null","html-keyboard-response","253","248015","0.0-3.0-0.125","","fixation","","",""
"934","Set1/098b.jpg","79","image-keyboard-response","254","248949","0.0-3.0-1.125","","","Update","o","true"
"null","<div style=""font-size:60px;"">+</div>","null","html-keyboard-response","255","249451","0.0-3.0-0.126","","fixation","","",""
"691","Set1/096a.jpg","79","image-keyboard-response","256","250143","0.0-3.0-1.126","","","Repeat","o","true"
"null","<div style=""font-size:60px;"">+</div>","null","html-keyboard-response","257","250645","0.0-3.0-0.127","","fixation","","",""
"1017","Set1/185a.jpg","79","image-keyboard-response","258","251664","0.0-3.0-1.127","","","Set_2_Only","o","true"
"null","<div style=""font-size:60px;"">+</div>","null","html-keyboard-response","259","252166","0.0-3.0-0.128","","fixation","","",""
"816","Set1/066a.jpg","79","image-keyboard-response","260","252983","0.0-3.0-1.128","","","Repeat","o","true"
"null","<div style=""font-size:60px;"">+</div>","null","html-keyboard-response","261","253485","0.0-3.0-0.129","","fixation","","",""
"695","Set1/144b.jpg","79","image-keyboard-response","262","254181","0.0-3.0-1.129","","","Update","o","true"
"null","<div style=""font-size:60px;"">+</div>","null","html-keyboard-response","263","254683","0.0-3.0-0.130","","fixation","","",""
"677","Set1/112b.jpg","79","image-keyboard-response","264","255362","0.0-3.0-1.130","","","Update","o","true"
"null","<div style=""font-size:60px;"">+</div>","null","html-keyboard-response","265","255863","0.0-3.0-0.131","","fixation","","",""
"1044","Set1/162a.jpg","79","image-keyboard-response","266","256908","0.0-3.0-1.131","","","Set_2_Only","o","true"
"null","<div style=""font-size:60px;"">+</div>","null","html-keyboard-response","267","257411","0.0-3.0-0.132","","fixation","","",""
"848","Set1/176a.jpg","79","image-keyboard-response","268","258260","0.0-3.0-1.132","","","Set_2_Only","o","true"
"null","<div style=""font-size:60px;"">+</div>","null","html-keyboard-response","269","258762","0.0-3.0-0.133","","fixation","","",""
"683","Set1/050a.jpg","79","image-keyboard-response","270","259446","0.0-3.0-1.133","","","Repeat","o","true"
"null","<div style=""font-size:60px;"">+</div>","null","html-keyboard-response","271","259948","0.0-3.0-0.134","","fixation","","",""
"634","Set1/078a.jpg","79","image-keyboard-response","272","260583","0.0-3.0-1.134","","","Repeat","o","true"
"null","<div style=""font-size:60px;"">+</div>","null","html-keyboard-response","273","261085","0.0-3.0-0.135","","fixation","","",""
"1241","Set1/150b.jpg","79","image-keyboard-response","274","262326","0.0-3.0-1.135","","","Update","n","false"
"null","<div style=""font-size:60px;"">+</div>","null","html-keyboard-response","275","262828","0.0-3.0-0.136","","fixation","","",""
"904","Set1/043a.jpg","79","image-keyboard-response","276","263733","0.0-3.0-1.136","","","Repeat","n","false"
"null","<div style=""font-size:60px;"">+</div>","null","html-keyboard-response","277","264235","0.0-3.0-0.137","","fixation","","",""
"1091","Set1/100b.jpg","78","image-keyboard-response","278","265327","0.0-3.0-1.137","","","Update","n","true"
"null","<div style=""font-size:60px;"">+</div>","null","html-keyboard-response","279","265829","0.0-3.0-0.138","","fixation","","",""
"878","Set1/042a.jpg","79","image-keyboard-response","280","266708","0.0-3.0-1.138","","","Repeat","o","true"
"null","<div style=""font-size:60px;"">+</div>","null","html-keyboard-response","281","267210","0.0-3.0-0.139","","fixation","","",""
"1152","Set1/131b.jpg","79","image-keyboard-response","282","268363","0.0-3.0-1.139","","","Update","n","false"
"null","<div style=""font-size:60px;"">+</div>","null","html-keyboard-response","283","268864","0.0-3.0-0.140","","fixation","","",""
"807","Set1/073a.jpg","79","image-keyboard-response","284","269673","0.0-3.0-1.140","","","Repeat","o","true"
"null","<div style=""font-size:60px;"">+</div>","null","html-keyboard-response","285","270175","0.0-3.0-0.141","","fixation","","",""
"567","Set1/074a.jpg","79","image-keyboard-response","286","270743","0.0-3.0-1.141","","","Repeat","o","true"
"null","<div style=""font-size:60px;"">+</div>","null","html-keyboard-response","287","271244","0.0-3.0-0.142","","fixation","","",""
"694","Set1/034a.jpg","79","image-keyboard-response","288","271939","0.0-3.0-1.142","","","Repeat","o","true"
"null","<div style=""font-size:60px;"">+</div>","null","html-keyboard-response","289","272441","0.0-3.0-0.143","","fixation","","",""
"1148","Set1/068a.jpg","79","image-keyboard-response","290","273590","0.0-3.0-1.143","","","Repeat","o","true"
"null","<div style=""font-size:60px;"">+</div>","null","html-keyboard-response","291","274092","0.0-3.0-0.144","","fixation","","",""
"1184","Set1/191a.jpg","79","image-keyboard-response","292","275277","0.0-3.0-1.144","","","Set_2_Only","o","true"
"null","<div style=""font-size:60px;"">+</div>","null","html-keyboard-response","293","275779","0.0-3.0-0.145","","fixation","","",""
"840","Set1/131b.jpg","79","image-keyboard-response","294","276620","0.0-3.0-1.145","","","Update","o","true"
"null","<div style=""font-size:60px;"">+</div>","null","html-keyboard-response","295","277122","0.0-3.0-0.146","","fixation","","",""
"770","Set1/043a.jpg","79","image-keyboard-response","296","277892","0.0-3.0-1.146","","","Repeat","o","true"
"null","<div style=""font-size:60px;"">+</div>","null","html-keyboard-response","297","278393","0.0-3.0-0.147","","fixation","","",""
"816","Set1/100b.jpg","79","image-keyboard-response","298","279210","0.0-3.0-1.147","","","Update","o","true"
"null","<div style=""font-size:60px;"">+</div>","null","html-keyboard-response","299","279712","0.0-3.0-0.148","","fixation","","",""
"590","Set1/055a.jpg","79","image-keyboard-response","300","280303","0.0-3.0-1.148","","","Repeat","o","true"
"null","<div style=""font-size:60px;"">+</div>","null","html-keyboard-response","301","280805","0.0-3.0-0.149","","fixation","","",""
"1144","Set1/041a.jpg","79","image-keyboard-response","302","281950","0.0-3.0-1.149","","","Repeat","n","false"
"null","<div style=""font-size:60px;"">+</div>","null","html-keyboard-response","303","282452","0.0-3.0-0.150","","fixation","","",""
"730","Set1/069a.jpg","79","image-keyboard-response","304","283183","0.0-3.0-1.150","","","Repeat","o","true"
"null","<div style=""font-size:60px;"">+</div>","null","html-keyboard-response","305","283685","0.0-3.0-0.151","","fixation","","",""
"1156","Set1/061a.jpg","79","image-keyboard-response","306","284842","0.0-3.0-1.151","","","Repeat","n","false"
"null","<div style=""font-size:60px;"">+</div>","null","html-keyboard-response","307","285344","0.0-3.0-0.152","","fixation","","",""
"724","Set1/103b.jpg","79","image-keyboard-response","308","286069","0.0-3.0-1.152","","","Update","o","true"
"null","<div style=""font-size:60px;"">+</div>","null","html-keyboard-response","309","286571","0.0-3.0-0.153","","fixation","","",""
"757","Set1/044a.jpg","79","image-keyboard-response","310","287329","0.0-3.0-1.153","","","Repeat","o","true"
"null","<div style=""font-size:60px;"">+</div>","null","html-keyboard-response","311","287831","0.0-3.0-0.154","","fixation","","",""
"696","Set1/150b.jpg","79","image-keyboard-response","312","288529","0.0-3.0-1.154","","","Update","o","true"
"null","<div style=""font-size:60px;"">+</div>","null","html-keyboard-response","313","289031","0.0-3.0-0.155","","fixation","","",""
"872","Set1/084a.jpg","79","image-keyboard-response","314","289903","0.0-3.0-1.155","","","Repeat","o","true"
"null","<div style=""font-size:60px;"">+</div>","null","html-keyboard-response","315","290405","0.0-3.0-0.156","","fixation","","",""
"959","Set1/130b.jpg","79","image-keyboard-response","316","291365","0.0-3.0-1.156","","","Update","o","true"
"null","<div style=""font-size:60px;"">+</div>","null","html-keyboard-response","317","291867","0.0-3.0-0.157","","fixation","","",""
"1749","Set1/143b.jpg","79","image-keyboard-response","318","293618","0.0-3.0-1.157","","","Update","o","true"
"null","<div style=""font-size:60px;"">+</div>","null","html-keyboard-response","319","294119","0.0-3.0-0.158","","fixation","","",""
"956","Set1/061a.jpg","79","image-keyboard-response","320","295076","0.0-3.0-1.158","","","Repeat","o","true"
"null","<div style=""font-size:60px;"">+</div>","null","html-keyboard-response","321","295578","0.0-3.0-0.159","","fixation","","",""
"896","Set1/041a.jpg","79","image-keyboard-response","322","296474","0.0-3.0-1.159","","","Repeat","o","true"
"null","<div style=""font-size:60px;"">+</div>","null","html-keyboard-response","323","296976","0.0-3.0-0.160","","fixation","","",""
"1130","Set1/113b.jpg","78","image-keyboard-response","324","298107","0.0-3.0-1.160","","","Update","n","true"
"null","<div style=""font-size:60px;"">+</div>","null","html-keyboard-response","325","298608","0.0-3.0-0.161","","fixation","","",""
"1134","Set1/105b.jpg","78","image-keyboard-response","326","299743","0.0-3.0-1.161","","","Update","n","true"
"null","<div style=""font-size:60px;"">+</div>","null","html-keyboard-response","327","300245","0.0-3.0-0.162","","fixation","","",""
"1119","Set1/056a.jpg","79","image-keyboard-response","328","301366","0.0-3.0-1.162","","","Repeat","n","false"
"null","<div style=""font-size:60px;"">+</div>","null","html-keyboard-response","329","301868","0.0-3.0-0.163","","fixation","","",""
"1715","Set1/070a.jpg","78","image-keyboard-response","330","303583","0.0-3.0-1.163","","","Repeat","n","true"
"null","<div style=""font-size:60px;"">+</div>","null","html-keyboard-response","331","304085","0.0-3.0-0.164","","fixation","","",""
"1409","Set1/089a.jpg","79","image-keyboard-response","332","305495","0.0-3.0-1.164","","","Repeat","n","false"
"null","<div style=""font-size:60px;"">+</div>","null","html-keyboard-response","333","305996","0.0-3.0-0.165","","fixation","","",""
"1135","Set1/165a.jpg","78","image-keyboard-response","334","307132","0.0-3.0-1.165","","","Set_2_Only","n","true"
"null","<div style=""font-size:60px;"">+</div>","null","html-keyboard-response","335","307634","0.0-3.0-0.166","","fixation","","",""
"1373","Set1/065a.jpg","78","image-keyboard-response","336","309008","0.0-3.0-1.166","","","Repeat","n","true"
"null","<div style=""font-size:60px;"">+</div>","null","html-keyboard-response","337","309510","0.0-3.0-0.167","","fixation","","",""
"1017","Set1/104b.jpg","79","image-keyboard-response","338","310528","0.0-3.0-1.167","","","Update","n","false"
"null","<div style=""font-size:60px;"">+</div>","null","html-keyboard-response","339","311030","0.0-3.0-0.168","","fixation","","",""
"988","Set1/065a.jpg","79","image-keyboard-response","340","312019","0.0-3.0-1.168","","","Repeat","o","true"
"null","<div style=""font-size:60px;"">+</div>","null","html-keyboard-response","341","312521","0.0-3.0-0.169","","fixation","","",""
"1417","Set1/082a.jpg","78","image-keyboard-response","342","313939","0.0-3.0-1.169","","","Repeat","n","true"
"null","<div style=""font-size:60px;"">+</div>","null","html-keyboard-response","343","314440","0.0-3.0-0.170","","fixation","","",""
"1202","Set1/134b.jpg","78","image-keyboard-response","344","315643","0.0-3.0-1.170","","","Update","n","true"
"null","<div style=""font-size:60px;"">+</div>","null","html-keyboard-response","345","316145","0.0-3.0-0.171","","fixation","","",""
"1351","Set1/158b.jpg","79","image-keyboard-response","346","317498","0.0-3.0-1.171","","","Update","n","false"
"null","<div style=""font-size:60px;"">+</div>","null","html-keyboard-response","347","317999","0.0-3.0-0.172","","fixation","","",""
"934","Set1/057a.jpg","79","image-keyboard-response","348","318935","0.0-3.0-1.172","","","Repeat","n","false"
"null","<div style=""font-size:60px;"">+</div>","null","html-keyboard-response","349","319436","0.0-3.0-0.173","","fixation","","",""
"937","Set1/105b.jpg","79","image-keyboard-response","350","320375","0.0-3.0-1.173","","","Update","o","true"
"null","<div style=""font-size:60px;"">+</div>","null","html-keyboard-response","351","320876","0.0-3.0-0.174","","fixation","","",""
"2068","Set1/161a.jpg","78","image-keyboard-response","352","322945","0.0-3.0-1.174","","","Set_2_Only","n","true"
"null","<div style=""font-size:60px;"">+</div>","null","html-keyboard-response","353","323447","0.0-3.0-0.175","","fixation","","",""
"926","Set1/101b.jpg","79","image-keyboard-response","354","324374","0.0-3.0-1.175","","","Update","n","false"
"null","<div style=""font-size:60px;"">+</div>","null","html-keyboard-response","355","324875","0.0-3.0-0.176","","fixation","","",""
"1145","Set1/089a.jpg","79","image-keyboard-response","356","326022","0.0-3.0-1.176","","","Repeat","o","true"
"null","<div style=""font-size:60px;"">+</div>","null","html-keyboard-response","357","326524","0.0-3.0-0.177","","fixation","","",""
"1091","Set1/101b.jpg","79","image-keyboard-response","358","327615","0.0-3.0-1.177","","","Update","o","true"
"null","<div style=""font-size:60px;"">+</div>","null","html-keyboard-response","359","328117","0.0-3.0-0.178","","fixation","","",""
"805","Set1/134b.jpg","79","image-keyboard-response","360","328924","0.0-3.0-1.178","","","Update","o","true"
"null","<div style=""font-size:60px;"">+</div>","null","html-keyboard-response","361","329426","0.0-3.0-0.179","","fixation","","",""
"865","Set1/161a.jpg","79","image-keyboard-response","362","330292","0.0-3.0-1.179","","","Set_2_Only","o","true"
"null","<div style=""font-size:60px;"">+</div>","null","html-keyboard-response","363","330794","0.0-3.0-0.180","","fixation","","",""
"1237","Set1/116b.jpg","78","image-keyboard-response","364","332032","0.0-3.0-1.180","","","Update","n","true"
"null","<div style=""font-size:60px;"">+</div>","null","html-keyboard-response","365","332534","0.0-3.0-0.181","","fixation","","",""
"1746","Set1/152b.jpg","79","image-keyboard-response","366","334281","0.0-3.0-1.181","","","Update","n","false"
"null","<div style=""font-size:60px;"">+</div>","null","html-keyboard-response","367","334783","0.0-3.0-0.182","","fixation","","",""
"1657","Set1/045a.jpg","78","image-keyboard-response","368","336441","0.0-3.0-1.182","","","Repeat","n","true"
"null","<div style=""font-size:60px;"">+</div>","null","html-keyboard-response","369","336942","0.0-3.0-0.183","","fixation","","",""
"1244","Set1/183a.jpg","78","image-keyboard-response","370","338187","0.0-3.0-1.183","","","Set_2_Only","n","true"
"null","<div style=""font-size:60px;"">+</div>","null","html-keyboard-response","371","338689","0.0-3.0-0.184","","fixation","","",""
"1023","Set1/053a.jpg","78","image-keyboard-response","372","339714","0.0-3.0-1.184","","","Repeat","n","true"
"null","<div style=""font-size:60px;"">+</div>","null","html-keyboard-response","373","340215","0.0-3.0-0.185","","fixation","","",""
"1166","Set1/182a.jpg","78","image-keyboard-response","374","341383","0.0-3.0-1.185","","","Set_2_Only","n","true"
"null","<div style=""font-size:60px;"">+</div>","null","html-keyboard-response","375","341884","0.0-3.0-0.186","","fixation","","",""
"1335","Set1/124b.jpg","78","image-keyboard-response","376","343220","0.0-3.0-1.186","","","Update","n","true"
"null","<div style=""font-size:60px;"">+</div>","null","html-keyboard-response","377","343721","0.0-3.0-0.187","","fixation","","",""
"1252","Set1/155b.jpg","78","image-keyboard-response","378","344975","0.0-3.0-1.187","","","Update","n","true"
"null","<div style=""font-size:60px;"">+</div>","null","html-keyboard-response","379","345476","0.0-3.0-0.188","","fixation","","",""
"950","Set1/104b.jpg","79","image-keyboard-response","380","346427","0.0-3.0-1.188","","","Update","o","true"
"null","<div style=""font-size:60px;"">+</div>","null","html-keyboard-response","381","346929","0.0-3.0-0.189","","fixation","","",""
"972","Set1/052a.jpg","79","image-keyboard-response","382","347903","0.0-3.0-1.189","","","Repeat","n","false"
"null","<div style=""font-size:60px;"">+</div>","null","html-keyboard-response","383","348404","0.0-3.0-0.190","","fixation","","",""
"803","Set1/158b.jpg","79","image-keyboard-response","384","349208","0.0-3.0-1.190","","","Update","o","true"
"null","<div style=""font-size:60px;"">+</div>","null","html-keyboard-response","385","349710","0.0-3.0-0.191","","fixation","","",""
"1059","Set1/184a.jpg","78","image-keyboard-response","386","350770","0.0-3.0-1.191","","","Set_2_Only","n","true"
"null","<div style=""font-size:60px;"">+</div>","null","html-keyboard-response","387","351271","0.0-3.0-0.192","","fixation","","",""
"697","Set1/052a.jpg","79","image-keyboard-response","388","351969","0.0-3.0-1.192","","","Repeat","o","true"
"null","<div style=""font-size:60px;"">+</div>","null","html-keyboard-response","389","352471","0.0-3.0-0.193","","fixation","","",""
"1186","Set1/192a.jpg","78","image-keyboard-response","390","353658","0.0-3.0-1.193","","","Set_2_Only","n","true"
"null","<div style=""font-size:60px;"">+</div>","null","html-keyboard-response","391","354159","0.0-3.0-0.194","","fixation","","",""
"1030","Set1/155b.jpg","79","image-keyboard-response","392","355190","0.0-3.0-1.194","","","Update","o","true"
"null","<div style=""font-size:60px;"">+</div>","null","html-keyboard-response","393","355692","0.0-3.0-0.195","","fixation","","",""
"1076","Set1/070a.jpg","79","image-keyboard-response","394","356768","0.0-3.0-1.195","","","Repeat","o","true"
"null","<div style=""font-size:60px;"">+</div>","null","html-keyboard-response","395","357270","0.0-3.0-0.196","","fixation","","",""
"1053","Set1/048a.jpg","78","image-keyboard-response","396","358324","0.0-3.0-1.196","","","Repeat","n","true"
"null","<div style=""font-size:60px;"">+</div>","null","html-keyboard-response","397","358826","0.0-3.0-0.197","","fixation","","",""
"1232","Set1/122b.jpg","78","image-keyboard-response","398","360058","0.0-3.0-1.197","","","Update","n","true"
"null","<div style=""font-size:60px;"">+</div>","null","html-keyboard-response","399","360560","0.0-3.0-0.198","","fixation","","",""
"1028","Set1/156b.jpg","79","image-keyboard-response","400","361589","0.0-3.0-1.198","","","Update","n","false"
"null","<div style=""font-size:60px;"">+</div>","null","html-keyboard-response","401","362091","0.0-3.0-0.199","","fixation","","",""
"1489","Set1/097b.jpg","79","image-keyboard-response","402","363581","0.0-3.0-1.199","","","Update","n","false"
"null","<div style=""font-size:60px;"">+</div>","null","html-keyboard-response","403","364083","0.0-3.0-0.200","","fixation","","",""
"1207","Set1/118b.jpg","78","image-keyboard-response","404","365291","0.0-3.0-1.200","","","Update","n","true"
"null","<div style=""font-size:60px;"">+</div>","null","html-keyboard-response","405","365792","0.0-3.0-0.201","","fixation","","",""
"884","Set1/183a.jpg","79","image-keyboard-response","406","366678","0.0-3.0-1.201","","","Set_2_Only","o","true"
"null","<div style=""font-size:60px;"">+</div>","null","html-keyboard-response","407","367179","0.0-3.0-0.202","","fixation","","",""
"1231","Set1/107b.jpg","79","image-keyboard-response","408","368412","0.0-3.0-1.202","","","Update","n","false"
"null","<div style=""font-size:60px;"">+</div>","null","html-keyboard-response","409","368914","0.0-3.0-0.203","","fixation","","",""
"736","Set1/048a.jpg","79","image-keyboard-response","410","369651","0.0-3.0-1.203","","","Repeat","o","true"
"null","<div style=""font-size:60px;"">+</div>","null","html-keyboard-response","411","370153","0.0-3.0-0.204","","fixation","","",""
"838","Set1/116b.jpg","79","image-keyboard-response","412","370992","0.0-3.0-1.204","","","Update","o","true"
"null","<div style=""font-size:60px;"">+</div>","null","html-keyboard-response","413","371494","0.0-3.0-0.205","","fixation","","",""
"1018","Set1/174a.jpg","78","image-keyboard-response","414","372513","0.0-3.0-1.205","","","Set_2_Only","n","true"
"null","<div style=""font-size:60px;"">+</div>","null","html-keyboard-response","415","373014","0.0-3.0-0.206","","fixation","","",""
"1008","Set1/190a.jpg","78","image-keyboard-response","416","374023","0.0-3.0-1.206","","","Set_2_Only","n","true"
"null","<div style=""font-size:60px;"">+</div>","null","html-keyboard-response","417","374525","0.0-3.0-0.207","","fixation","","",""
"767","Set1/056a.jpg","79","image-keyboard-response","418","375293","0.0-3.0-1.207","","","Repeat","o","true"
"null","<div style=""font-size:60px;"">+</div>","null","html-keyboard-response","419","375795","0.0-3.0-0.208","","fixation","","",""
"2160","Set1/085a.jpg","78","image-keyboard-response","420","377956","0.0-3.0-1.208","","","Repeat","n","true"
"null","<div style=""font-size:60px;"">+</div>","null","html-keyboard-response","421","378458","0.0-3.0-0.209","","fixation","","",""
"1244","Set1/182a.jpg","79","image-keyboard-response","422","379703","0.0-3.0-1.209","","","Set_2_Only","o","true"
"null","<div style=""font-size:60px;"">+</div>","null","html-keyboard-response","423","380205","0.0-3.0-0.210","","fixation","","",""
"1199","Set1/163a.jpg","78","image-keyboard-response","424","381405","0.0-3.0-1.210","","","Set_2_Only","n","true"
"null","<div style=""font-size:60px;"">+</div>","null","html-keyboard-response","425","381907","0.0-3.0-0.211","","fixation","","",""
"1180","Set1/189a.jpg","78","image-keyboard-response","426","383088","0.0-3.0-1.211","","","Set_2_Only","n","true"
"null","<div style=""font-size:60px;"">+</div>","null","html-keyboard-response","427","383590","0.0-3.0-0.212","","fixation","","",""
"916","Set1/097b.jpg","79","image-keyboard-response","428","384507","0.0-3.0-1.212","","","Update","o","true"
"null","<div style=""font-size:60px;"">+</div>","null","html-keyboard-response","429","385009","0.0-3.0-0.213","","fixation","","",""
"844","Set1/113b.jpg","79","image-keyboard-response","430","385853","0.0-3.0-1.213","","","Update","o","true"
"null","<div style=""font-size:60px;"">+</div>","null","html-keyboard-response","431","386355","0.0-3.0-0.214","","fixation","","",""
"984","Set1/174a.jpg","79","image-keyboard-response","432","387340","0.0-3.0-1.214","","","Set_2_Only","o","true"
"null","<div style=""font-size:60px;"">+</div>","null","html-keyboard-response","433","387842","0.0-3.0-0.215","","fixation","","",""
"1213","Set1/115b.jpg","79","image-keyboard-response","434","389056","0.0-3.0-1.215","","","Update","n","false"
"null","<div style=""font-size:60px;"">+</div>","null","html-keyboard-response","435","389558","0.0-3.0-0.216","","fixation","","",""
"846","Set1/124b.jpg","79","image-keyboard-response","436","390406","0.0-3.0-1.216","","","Update","o","true"
"null","<div style=""font-size:60px;"">+</div>","null","html-keyboard-response","437","390907","0.0-3.0-0.217","","fixation","","",""
"976","Set1/186a.jpg","78","image-keyboard-response","438","391884","0.0-3.0-1.217","","","Set_2_Only","n","true"
"null","<div style=""font-size:60px;"">+</div>","null","html-keyboard-response","439","392386","0.0-3.0-0.218","","fixation","","",""
"1085","Set1/169a.jpg","78","image-keyboard-response","440","393472","0.0-3.0-1.218","","","Set_2_Only","n","true"
"null","<div style=""font-size:60px;"">+</div>","null","html-keyboard-response","441","393974","0.0-3.0-0.219","","fixation","","",""
"889","Set1/192a.jpg","79","image-keyboard-response","442","394863","0.0-3.0-1.219","","","Set_2_Only","o","true"
"null","<div style=""font-size:60px;"">+</div>","null","html-keyboard-response","443","395365","0.0-3.0-0.220","","fixation","","",""
"877","Set1/163a.jpg","79","image-keyboard-response","444","396243","0.0-3.0-1.220","","","Set_2_Only","o","true"
"null","<div style=""font-size:60px;"">+</div>","null","html-keyboard-response","445","396744","0.0-3.0-0.221","","fixation","","",""
"777","Set1/118b.jpg","79","image-keyboard-response","446","397523","0.0-3.0-1.221","","","Update","o","true"
"null","<div style=""font-size:60px;"">+</div>","null","html-keyboard-response","447","398025","0.0-3.0-0.222","","fixation","","",""
"754","Set1/107b.jpg","79","image-keyboard-response","448","398779","0.0-3.0-1.222","","","Update","o","true"
"null","<div style=""font-size:60px;"">+</div>","null","html-keyboard-response","449","399281","0.0-3.0-0.223","","fixation","","",""
"1022","Set1/062a.jpg","78","image-keyboard-response","450","400304","0.0-3.0-1.223","","","Repeat","n","true"
"null","<div style=""font-size:60px;"">+</div>","null","html-keyboard-response","451","400806","0.0-3.0-0.224","","fixation","","",""
"895","Set1/156b.jpg","79","image-keyboard-response","452","401702","0.0-3.0-1.224","","","Update","o","true"
"null","<div style=""font-size:60px;"">+</div>","null","html-keyboard-response","453","402204","0.0-3.0-0.225","","fixation","","",""
"845","Set1/186a.jpg","79","image-keyboard-response","454","403050","0.0-3.0-1.225","","","Set_2_Only","o","true"
"null","<div style=""font-size:60px;"">+</div>","null","html-keyboard-response","455","403552","0.0-3.0-0.226","","fixation","","",""
"773","Set1/045a.jpg","79","image-keyboard-response","456","404326","0.0-3.0-1.226","","","Repeat","o","true"
"null","<div style=""font-size:60px;"">+</div>","null","html-keyboard-response","457","404828","0.0-3.0-0.227","","fixation","","",""
"810","Set1/057a.jpg","79","image-keyboard-response","458","405638","0.0-3.0-1.227","","","Repeat","o","true"
"null","<div style=""font-size:60px;"">+</div>","null","html-keyboard-response","459","406140","0.0-3.0-0.228","","fixation","","",""
"825","Set1/184a.jpg","79","image-keyboard-response","460","406966","0.0-3.0-1.228","","","Set_2_Only","o","true"
"null","<div style=""font-size:60px;"">+</div>","null","html-keyboard-response","461","407468","0.0-3.0-0.229","","fixation","","",""
"753","Set1/165a.jpg","79","image-keyboard-response","462","408221","0.0-3.0-1.229","","","Set_2_Only","o","true"
"null","<div style=""font-size:60px;"">+</div>","null","html-keyboard-response","463","408723","0.0-3.0-0.230","","fixation","","",""
"593","Set1/062a.jpg","79","image-keyboard-response","464","409317","0.0-3.0-1.230","","","Repeat","o","true"
"null","<div style=""font-size:60px;"">+</div>","null","html-keyboard-response","465","409818","0.0-3.0-0.231","","fixation","","",""
"994","Set1/152b.jpg","79","image-keyboard-response","466","410813","0.0-3.0-1.231","","","Update","o","true"
"null","<div style=""font-size:60px;"">+</div>","null","html-keyboard-response","467","411315","0.0-3.0-0.232","","fixation","","",""
"885","Set1/053a.jpg","79","image-keyboard-response","468","412202","0.0-3.0-1.232","","","Repeat","o","true"
"null","<div style=""font-size:60px;"">+</div>","null","html-keyboard-response","469","412703","0.0-3.0-0.233","","fixation","","",""
"734","Set1/190a.jpg","79","image-keyboard-response","470","413439","0.0-3.0-1.233","","","Set_2_Only","o","true"
"null","<div style=""font-size:60px;"">+</div>","null","html-keyboard-response","471","413940","0.0-3.0-0.234","","fixation","","",""
"807","Set1/082a.jpg","79","image-keyboard-response","472","414748","0.0-3.0-1.234","","","Repeat","o","true"
"null","<div style=""font-size:60px;"">+</div>","null","html-keyboard-response","473","415250","0.0-3.0-0.235","","fixation","","",""
"1187","Set1/085a.jpg","79","image-keyboard-response","474","416438","0.0-3.0-1.235","","","Repeat","o","true"
"null","<div style=""font-size:60px;"">+</div>","null","html-keyboard-response","475","416940","0.0-3.0-0.236","","fixation","","",""
"1083","Set1/169a.jpg","79","image-keyboard-response","476","418024","0.0-3.0-1.236","","","Set_2_Only","o","true"
"null","<div style=""font-size:60px;"">+</div>","null","html-keyboard-response","477","418525","0.0-3.0-0.237","","fixation","","",""
"813","Set1/122b.jpg","79","image-keyboard-response","478","419339","0.0-3.0-1.237","","","Update","o","true"
"null","<div style=""font-size:60px;"">+</div>","null","html-keyboard-response","479","419841","0.0-3.0-0.238","","fixation","","",""
"957","Set1/189a.jpg","79","image-keyboard-response","480","420799","0.0-3.0-1.238","","","Set_2_Only","o","true"
"null","<div style=""font-size:60px;"">+</div>","null","html-keyboard-response","481","421301","0.0-3.0-0.239","","fixation","","",""
"911","Set1/115b.jpg","79","image-keyboard-response","482","422213","0.0-3.0-1.239","","","Update","o","true"
"null","<div style=""font-size:60px;"">+</div>","null","html-keyboard-response","483","422714","0.0-3.0-0.240","","fixation","","",""
"1056","Set1/081a.jpg","78","image-keyboard-response","484","423771","0.0-3.0-1.240","","","Repeat","n","true"
"null","<div style=""font-size:60px;"">+</div>","null","html-keyboard-response","485","424273","0.0-3.0-0.241","","fixation","","",""
"1209","Set1/166a.jpg","78","image-keyboard-response","486","425483","0.0-3.0-1.241","","","Set_2_Only","n","true"
"null","<div style=""font-size:60px;"">+</div>","null","html-keyboard-response","487","425985","0.0-3.0-0.242","","fixation","","",""
"1028","Set1/111b.jpg","78","image-keyboard-response","488","427014","0.0-3.0-1.242","","","Update","n","true"
"null","<div style=""font-size:60px;"">+</div>","null","html-keyboard-response","489","427516","0.0-3.0-0.243","","fixation","","",""
"804","Set1/063a.jpg","78","image-keyboard-response","490","428321","0.0-3.0-1.243","","","Repeat","n","true"
"null","<div style=""font-size:60px;"">+</div>","null","html-keyboard-response","491","428823","0.0-3.0-0.244","","fixation","","",""
"955","Set1/127b.jpg","79","image-keyboard-response","492","429780","0.0-3.0-1.244","","","Update","n","false"
"null","<div style=""font-size:60px;"">+</div>","null","html-keyboard-response","493","430282","0.0-3.0-0.245","","fixation","","",""
"956","Set1/077a.jpg","79","image-keyboard-response","494","431239","0.0-3.0-1.245","","","Repeat","n","false"
"null","<div style=""font-size:60px;"">+</div>","null","html-keyboard-response","495","431741","0.0-3.0-0.246","","fixation","","",""
"931","Set1/117b.jpg","78","image-keyboard-response","496","432674","0.0-3.0-1.246","","","Update","n","true"
"null","<div style=""font-size:60px;"">+</div>","null","html-keyboard-response","497","433176","0.0-3.0-0.247","","fixation","","",""
"1357","Set1/110b.jpg","79","image-keyboard-response","498","434533","0.0-3.0-1.247","","","Update","n","false"
"null","<div style=""font-size:60px;"">+</div>","null","html-keyboard-response","499","435035","0.0-3.0-0.248","","fixation","","",""
"1234","Set1/137b.jpg","78","image-keyboard-response","500","436270","0.0-3.0-1.248","","","Update","n","true"
"null","<div style=""font-size:60px;"">+</div>","null","html-keyboard-response","501","436772","0.0-3.0-0.249","","fixation","","",""
"902","Set1/146b.jpg","79","image-keyboard-response","502","437675","0.0-3.0-1.249","","","Update","n","false"
"null","<div style=""font-size:60px;"">+</div>","null","html-keyboard-response","503","438177","0.0-3.0-0.250","","fixation","","",""
"959","Set1/164a.jpg","78","image-keyboard-response","504","439136","0.0-3.0-1.250","","","Set_2_Only","n","true"
"null","<div style=""font-size:60px;"">+</div>","null","html-keyboard-response","505","439638","0.0-3.0-0.251","","fixation","","",""
"951","Set1/132b.jpg","78","image-keyboard-response","506","440590","0.0-3.0-1.251","","","Update","n","true"
"null","<div style=""font-size:60px;"">+</div>","null","html-keyboard-response","507","441092","0.0-3.0-0.252","","fixation","","",""
"1073","Set1/136b.jpg","78","image-keyboard-response","508","442166","0.0-3.0-1.252","","","Update","n","true"
"null","<div style=""font-size:60px;"">+</div>","null","html-keyboard-response","509","442668","0.0-3.0-0.253","","fixation","","",""
"946","Set1/072a.jpg","78","image-keyboard-response","510","443615","0.0-3.0-1.253","","","Repeat","n","true"
"null","<div style=""font-size:60px;"">+</div>","null","html-keyboard-response","511","444117","0.0-3.0-0.254","","fixation","","",""
"739","Set1/049a.jpg","78","image-keyboard-response","512","444857","0.0-3.0-1.254","","","Repeat","n","true"
"null","<div style=""font-size:60px;"">+</div>","null","html-keyboard-response","513","445359","0.0-3.0-0.255","","fixation","","",""
"826","Set1/133b.jpg","78","image-keyboard-response","514","446186","0.0-3.0-1.255","","","Update","n","true"
"null","<div style=""font-size:60px;"">+</div>","null","html-keyboard-response","515","446687","0.0-3.0-0.256","","fixation","","",""
"932","Set1/109b.jpg","79","image-keyboard-response","516","447620","0.0-3.0-1.256","","","Update","n","false"
"null","<div style=""font-size:60px;"">+</div>","null","html-keyboard-response","517","448122","0.0-3.0-0.257","","fixation","","",""
"1227","Set1/121b.jpg","79","image-keyboard-response","518","449350","0.0-3.0-1.257","","","Update","n","false"
"null","<div style=""font-size:60px;"">+</div>","null","html-keyboard-response","519","449852","0.0-3.0-0.258","","fixation","","",""
"1114","Set1/111b.jpg","79","image-keyboard-response","520","450967","0.0-3.0-1.258","","","Update","o","true"
"null","<div style=""font-size:60px;"">+</div>","null","html-keyboard-response","521","451469","0.0-3.0-0.259","","fixation","","",""
"1459","Set1/129b.jpg","78","image-keyboard-response","522","452930","0.0-3.0-1.259","","","Update","n","true"
"null","<div style=""font-size:60px;"">+</div>","null","html-keyboard-response","523","453432","0.0-3.0-0.260","","fixation","","",""
"1083","Set1/088a.jpg","78","image-keyboard-response","524","454515","0.0-3.0-1.260","","","Repeat","n","true"
"null","<div style=""font-size:60px;"">+</div>","null","html-keyboard-response","525","455016","0.0-3.0-0.261","","fixation","","",""
"1007","Set1/136b.jpg","79","image-keyboard-response","526","456025","0.0-3.0-1.261","","","Update","o","true"
"null","<div style=""font-size:60px;"">+</div>","null","html-keyboard-response","527","456527","0.0-3.0-0.262","","fixation","","",""
"921","Set1/088a.jpg","79","image-keyboard-response","528","457448","0.0-3.0-1.262","","","Repeat","o","true"
"null","<div style=""font-size:60px;"">+</div>","null","html-keyboard-response","529","457950","0.0-3.0-0.263","","fixation","","",""
"1164","Set1/125b.jpg","78","image-keyboard-response","530","459115","0.0-3.0-1.263","","","Update","n","true"
"null","<div style=""font-size:60px;"">+</div>","null","html-keyboard-response","531","459617","0.0-3.0-0.264","","fixation","","",""
"1253","Set1/054a.jpg","78","image-keyboard-response","532","460871","0.0-3.0-1.264","","","Repeat","n","true"
"null","<div style=""font-size:60px;"">+</div>","null","html-keyboard-response","533","461373","0.0-3.0-0.265","","fixation","","",""
"934","Set1/099b.jpg","78","image-keyboard-response","534","462308","0.0-3.0-1.265","","","Update","n","true"
"null","<div style=""font-size:60px;"">+</div>","null","html-keyboard-response","535","462811","0.0-3.0-0.266","","fixation","","",""
"914","Set1/166a.jpg","79","image-keyboard-response","536","463726","0.0-3.0-1.266","","","Set_2_Only","o","true"
"null","<div style=""font-size:60px;"">+</div>","null","html-keyboard-response","537","464228","0.0-3.0-0.267","","fixation","","",""
"1047","Set1/093a.jpg","79","image-keyboard-response","538","465276","0.0-3.0-1.267","","","Repeat","n","false"
"null","<div style=""font-size:60px;"">+</div>","null","html-keyboard-response","539","465777","0.0-3.0-0.268","","fixation","","",""
"1265","Set1/060a.jpg","79","image-keyboard-response","540","467043","0.0-3.0-1.268","","","Repeat","n","false"
"null","<div style=""font-size:60px;"">+</div>","null","html-keyboard-response","541","467545","0.0-3.0-0.269","","fixation","","",""
"1017","Set1/110b.jpg","79","image-keyboard-response","542","468563","0.0-3.0-1.269","","","Update","o","true"
"null","<div style=""font-size:60px;"">+</div>","null","html-keyboard-response","543","469065","0.0-3.0-0.270","","fixation","","",""
"998","Set1/093a.jpg","79","image-keyboard-response","544","470064","0.0-3.0-1.270","","","Repeat","o","true"
"null","<div style=""font-size:60px;"">+</div>","null","html-keyboard-response","545","470565","0.0-3.0-0.271","","fixation","","",""
"1362","Set1/180a.jpg","78","image-keyboard-response","546","471928","0.0-3.0-1.271","","","Set_2_Only","n","true"
"null","<div style=""font-size:60px;"">+</div>","null","html-keyboard-response","547","472430","0.0-3.0-0.272","","fixation","","",""
"892","Set1/120b.jpg","79","image-keyboard-response","548","473324","0.0-3.0-1.272","","","Update","n","false"
"null","<div style=""font-size:60px;"">+</div>","null","html-keyboard-response","549","473826","0.0-3.0-0.273","","fixation","","",""
"1180","Set1/178a.jpg","78","image-keyboard-response","550","475007","0.0-3.0-1.273","","","Set_2_Only","n","true"
"null","<div style=""font-size:60px;"">+</div>","null","html-keyboard-response","551","475508","0.0-3.0-0.274","","fixation","","",""
"1517","Set1/079a.jpg","78","image-keyboard-response","552","477027","0.0-3.0-1.274","","","Repeat","n","true"
"null","<div style=""font-size:60px;"">+</div>","null","html-keyboard-response","553","477529","0.0-3.0-0.275","","fixation","","",""
"1645","Set1/151b.jpg","78","image-keyboard-response","554","479174","0.0-3.0-1.275","","","Update","n","true"
"null","<div style=""font-size:60px;"">+</div>","null","html-keyboard-response","555","479676","0.0-3.0-0.276","","fixation","","",""
"1020","Set1/181a.jpg","78","image-keyboard-response","556","480697","0.0-3.0-1.276","","","Set_2_Only","n","true"
"null","<div style=""font-size:60px;"">+</div>","null","html-keyboard-response","557","481199","0.0-3.0-0.277","","fixation","","",""
"894","Set1/099b.jpg","79","image-keyboard-response","558","482094","0.0-3.0-1.277","","","Update","o","true"
"null","<div style=""font-size:60px;"">+</div>","null","html-keyboard-response","559","482596","0.0-3.0-0.278","","fixation","","",""
"1098","Set1/102b.jpg","78","image-keyboard-response","560","483695","0.0-3.0-1.278","","","Update","n","true"
"null","<div style=""font-size:60px;"">+</div>","null","html-keyboard-response","561","484197","0.0-3.0-0.279","","fixation","","",""
"972","Set1/167a.jpg","78","image-keyboard-response","562","485170","0.0-3.0-1.279","","","Set_2_Only","n","true"
"null","<div style=""font-size:60px;"">+</div>","null","html-keyboard-response","563","485672","0.0-3.0-0.280","","fixation","","",""
"741","Set1/102b.jpg","79","image-keyboard-response","564","486414","0.0-3.0-1.280","","","Update","o","true"
"null","<div style=""font-size:60px;"">+</div>","null","html-keyboard-response","565","486916","0.0-3.0-0.281","","fixation","","",""
"1061","Set1/092a.jpg","78","image-keyboard-response","566","487978","0.0-3.0-1.281","","","Repeat","n","true"
"null","<div style=""font-size:60px;"">+</div>","null","html-keyboard-response","567","488480","0.0-3.0-0.282","","fixation","","",""
"795","Set1/081a.jpg","79","image-keyboard-response","568","489276","0.0-3.0-1.282","","","Repeat","o","true"
"null","<div style=""font-size:60px;"">+</div>","null","html-keyboard-response","569","489778","0.0-3.0-0.283","","fixation","","",""
"690","Set1/120b.jpg","79","image-keyboard-response","570","490469","0.0-3.0-1.283","","","Update","o","true"
"null","<div style=""font-size:60px;"">+</div>","null","html-keyboard-response","571","490971","0.0-3.0-0.284","","fixation","","",""
"663","Set1/076a.jpg","79","image-keyboard-response","572","491635","0.0-3.0-1.284","","","Repeat","n","false"
"null","<div style=""font-size:60px;"">+</div>","null","html-keyboard-response","573","492137","0.0-3.0-0.285","","fixation","","",""
"1440","Set1/033a.jpg","78","image-keyboard-response","574","493578","0.0-3.0-1.285","","","Repeat","n","true"
"null","<div style=""font-size:60px;"">+</div>","null","html-keyboard-response","575","494079","0.0-3.0-0.286","","fixation","","",""
"869","Set1/125b.jpg","79","image-keyboard-response","576","494949","0.0-3.0-1.286","","","Update","o","true"
"null","<div style=""font-size:60px;"">+</div>","null","html-keyboard-response","577","495450","0.0-3.0-0.287","","fixation","","",""
"693","Set1/127b.jpg","79","image-keyboard-response","578","496145","0.0-3.0-1.287","","","Update","o","true"
"null","<div style=""font-size:60px;"">+</div>","null","html-keyboard-response","579","496647","0.0-3.0-0.288","","fixation","","",""
"901","Set1/092a.jpg","79","image-keyboard-response","580","497548","0.0-3.0-1.288","","","Repeat","o","true"
"null","<div style=""font-size:60px;"">+</div>","null","html-keyboard-response","581","498050","0.0-3.0-0.289","","fixation","","",""
"635","Set1/181a.jpg","79","image-keyboard-response","582","498686","0.0-3.0-1.289","","","Set_2_Only","o","true"
"null","<div style=""font-size:60px;"">+</div>","null","html-keyboard-response","583","499188","0.0-3.0-0.290","","fixation","","",""
"948","Set1/086a.jpg","78","image-keyboard-response","584","500137","0.0-3.0-1.290","","","Repeat","n","true"
"null","<div style=""font-size:60px;"">+</div>","null","html-keyboard-response","585","500638","0.0-3.0-0.291","","fixation","","",""
"1110","Set1/109b.jpg","79","image-keyboard-response","586","501750","0.0-3.0-1.291","","","Update","o","true"
"null","<div style=""font-size:60px;"">+</div>","null","html-keyboard-response","587","502252","0.0-3.0-0.292","","fixation","","",""
"998","Set1/167a.jpg","79","image-keyboard-response","588","503250","0.0-3.0-1.292","","","Set_2_Only","o","true"
"null","<div style=""font-size:60px;"">+</div>","null","html-keyboard-response","589","503752","0.0-3.0-0.293","","fixation","","",""
"922","Set1/129b.jpg","79","image-keyboard-response","590","504674","0.0-3.0-1.293","","","Update","o","true"
"null","<div style=""font-size:60px;"">+</div>","null","html-keyboard-response","591","505176","0.0-3.0-0.294","","fixation","","",""
"853","Set1/180a.jpg","79","image-keyboard-response","592","506031","0.0-3.0-1.294","","","Set_2_Only","o","true"
"null","<div style=""font-size:60px;"">+</div>","null","html-keyboard-response","593","506533","0.0-3.0-0.295","","fixation","","",""
"747","Set1/121b.jpg","79","image-keyboard-response","594","507280","0.0-3.0-1.295","","","Update","o","true"
"null","<div style=""font-size:60px;"">+</div>","null","html-keyboard-response","595","507782","0.0-3.0-0.296","","fixation","","",""
"922","Set1/178a.jpg","79","image-keyboard-response","596","508705","0.0-3.0-1.296","","","Set_2_Only","o","true"
"null","<div style=""font-size:60px;"">+</div>","null","html-keyboard-response","597","509207","0.0-3.0-0.297","","fixation","","",""
"1250","Set1/094a.jpg","79","image-keyboard-response","598","510458","0.0-3.0-1.297","","","Repeat","n","false"
"null","<div style=""font-size:60px;"">+</div>","null","html-keyboard-response","599","510959","0.0-3.0-0.298","","fixation","","",""
"1416","Set1/137b.jpg","79","image-keyboard-response","600","512376","0.0-3.0-1.298","","","Update","o","true"
"null","<div style=""font-size:60px;"">+</div>","null","html-keyboard-response","601","512878","0.0-3.0-0.299","","fixation","","",""
"846","Set1/060a.jpg","79","image-keyboard-response","602","513725","0.0-3.0-1.299","","","Repeat","o","true"
"null","<div style=""font-size:60px;"">+</div>","null","html-keyboard-response","603","514227","0.0-3.0-0.300","","fixation","","",""
"923","Set1/133b.jpg","79","image-keyboard-response","604","515151","0.0-3.0-1.300","","","Update","o","true"
"null","<div style=""font-size:60px;"">+</div>","null","html-keyboard-response","605","515653","0.0-3.0-0.301","","fixation","","",""
"687","Set1/164a.jpg","79","image-keyboard-response","606","516341","0.0-3.0-1.301","","","Set_2_Only","o","true"
"null","<div style=""font-size:60px;"">+</div>","null","html-keyboard-response","607","516843","0.0-3.0-0.302","","fixation","","",""
"686","Set1/054a.jpg","79","image-keyboard-response","608","517530","0.0-3.0-1.302","","","Repeat","o","true"
"null","<div style=""font-size:60px;"">+</div>","null","html-keyboard-response","609","518031","0.0-3.0-0.303","","fixation","","",""
"1310","Set1/117b.jpg","79","image-keyboard-response","610","519342","0.0-3.0-1.303","","","Update","o","true"
"null","<div style=""font-size:60px;"">+</div>","null","html-keyboard-response","611","519843","0.0-3.0-0.304","","fixation","","",""
"851","Set1/049a.jpg","79","image-keyboard-response","612","520695","0.0-3.0-1.304","","","Repeat","o","true"
"null","<div style=""font-size:60px;"">+</div>","null","html-keyboard-response","613","521196","0.0-3.0-0.305","","fixation","","",""
"771","Set1/132b.jpg","79","image-keyboard-response","614","521968","0.0-3.0-1.305","","","Update","o","true"
"null","<div style=""font-size:60px;"">+</div>","null","html-keyboard-response","615","522469","0.0-3.0-0.306","","fixation","","",""
"735","Set1/151b.jpg","79","image-keyboard-response","616","523205","0.0-3.0-1.306","","","Update","o","true"
"null","<div style=""font-size:60px;"">+</div>","null","html-keyboard-response","617","523707","0.0-3.0-0.307","","fixation","","",""
"687","Set1/086a.jpg","79","image-keyboard-response","618","524395","0.0-3.0-1.307","","","Repeat","o","true"
"null","<div style=""font-size:60px;"">+</div>","null","html-keyboard-response","619","524897","0.0-3.0-0.308","","fixation","","",""
"1007","Set1/160b.jpg","78","image-keyboard-response","620","525905","0.0-3.0-1.308","","","Update","n","true"
"null","<div style=""font-size:60px;"">+</div>","null","html-keyboard-response","621","526407","0.0-3.0-0.309","","fixation","","",""
"805","Set1/094a.jpg","79","image-keyboard-response","622","527214","0.0-3.0-1.309","","","Repeat","o","true"
"null","<div style=""font-size:60px;"">+</div>","null","html-keyboard-response","623","527715","0.0-3.0-0.310","","fixation","","",""
"957","Set1/146b.jpg","79","image-keyboard-response","624","528674","0.0-3.0-1.310","","","Update","o","true"
"null","<div style=""font-size:60px;"">+</div>","null","html-keyboard-response","625","529175","0.0-3.0-0.311","","fixation","","",""
"2001","Set1/160b.jpg","79","image-keyboard-response","626","531177","0.0-3.0-1.311","","","Update","o","true"
"null","<div style=""font-size:60px;"">+</div>","null","html-keyboard-response","627","531678","0.0-3.0-0.312","","fixation","","",""
"1777","Set1/072a.jpg","79","image-keyboard-response","628","533456","0.0-3.0-1.312","","","Repeat","o","true"
"null","<div style=""font-size:60px;"">+</div>","null","html-keyboard-response","629","533958","0.0-3.0-0.313","","fixation","","",""
"853","Set1/076a.jpg","79","image-keyboard-response","630","534812","0.0-3.0-1.313","","","Repeat","o","true"
"null","<div style=""font-size:60px;"">+</div>","null","html-keyboard-response","631","535314","0.0-3.0-0.314","","fixation","","",""
"863","Set1/079a.jpg","79","image-keyboard-response","632","536178","0.0-3.0-1.314","","","Repeat","o","true"
"null","<div style=""font-size:60px;"">+</div>","null","html-keyboard-response","633","536679","0.0-3.0-0.315","","fixation","","",""
"857","Set1/033a.jpg","79","image-keyboard-response","634","537537","0.0-3.0-1.315","","","Repeat","o","true"
"null","<div style=""font-size:60px;"">+</div>","null","html-keyboard-response","635","538039","0.0-3.0-0.316","","fixation","","",""
"929","Set1/051a.jpg","78","image-keyboard-response","636","538970","0.0-3.0-1.316","","","Repeat","n","true"
"null","<div style=""font-size:60px;"">+</div>","null","html-keyboard-response","637","539472","0.0-3.0-0.317","","fixation","","",""
"631","Set1/077a.jpg","79","image-keyboard-response","638","540104","0.0-3.0-1.317","","","Repeat","o","true"
"null","<div style=""font-size:60px;"">+</div>","null","html-keyboard-response","639","540605","0.0-3.0-0.318","","fixation","","",""
"1330","Set1/051a.jpg","79","image-keyboard-response","640","541936","0.0-3.0-1.318","","","Repeat","o","true"
"null","<div style=""font-size:60px;"">+</div>","null","html-keyboard-response","641","542438","0.0-3.0-0.319","","fixation","","",""
"1461","Set1/063a.jpg","79","image-keyboard-response","642","543901","0.0-3.0-1.319","","","Repeat","o","true"
