"rt","stimulus","key_press","trial_type","trial_index","time_elapsed","internal_node_id","responses","test_part","stim_type","correct_response","correct"
"23365","Press any key to begin.","13","html-keyboard-response","0","23367","0.0-0.0","","","","",""
"24875","","","survey-text","1","48244","0.0-1.0","{""Q0"":""Set2121414"",""Q1"":""""}","","","",""
"28861","<p>In this experiment you will see a series of everyday objects presented one at a time at the center of the screen. Each image will be presented twice.</p><p>The first time you see the image, press the N key to indicat that it is a NEW image. The second time you see the image, press the O key to indicate that it is an OLD image.</p><p>Some of the images will be repeats from the first session of this task you did yesterday. I want you to treat those images as 'OLD' if you remember seeing them before. Some of the images will be very similar but not identical to an image that you have seen in the previous set. I want you to treat those images as 'NEW' the first time you see them and 'OLD' the second time.</p><div style='width: 700px;'></div><p>Press any key to begin.</p>","32","html-keyboard-response","2","77107","0.0-2.0","","","","",""
"null","<div style=""font-size:60px;"">+</div>","null","html-keyboard-response","3","79638","0.0-3.0-0.0","","fixation","","",""
"2766","Set1/037a.jpg","78","image-keyboard-response","4","82408","0.0-3.0-1.0","","","Repeat","n","true"
"null","<div style=""font-size:60px;"">+</div>","null","html-keyboard-response","5","82935","0.0-3.0-0.1","","fixation","","",""
"1560","Set1/095a.jpg","78","image-keyboard-response","6","84497","0.0-3.0-1.1","","","Repeat","n","true"
"null","<div style=""font-size:60px;"">+</div>","null","html-keyboard-response","7","85012","0.0-3.0-0.2","","fixation","","",""
"1004","Set1/080a.jpg","79","image-keyboard-response","8","86018","0.0-3.0-1.2","","","Repeat","n","false"
"null","<div style=""font-size:60px;"">+</div>","null","html-keyboard-response","9","86529","0.0-3.0-0.3","","fixation","","",""
"891","Set1/142b.jpg","79","image-keyboard-response","10","87424","0.0-3.0-1.3","","","Update","n","false"
"null","<div style=""font-size:60px;"">+</div>","null","html-keyboard-response","11","87935","0.0-3.0-0.4","","fixation","","",""
"1433","Set1/179a.jpg","78","image-keyboard-response","12","89371","0.0-3.0-1.4","","","Set_2_Only","n","true"
"null","<div style=""font-size:60px;"">+</div>","null","html-keyboard-response","13","89889","0.0-3.0-0.5","","fixation","","",""
"1058","Set1/039a.jpg","79","image-keyboard-response","14","90949","0.0-3.0-1.5","","","Repeat","n","false"
"null","<div style=""font-size:60px;"">+</div>","null","html-keyboard-response","15","91467","0.0-3.0-0.6","","fixation","","",""
"1178","Set1/172a.jpg","78","image-keyboard-response","16","92647","0.0-3.0-1.6","","","Set_2_Only","n","true"
"null","<div style=""font-size:60px;"">+</div>","null","html-keyboard-response","17","93153","0.0-3.0-0.7","","fixation","","",""
"1051","Set1/075a.jpg","79","image-keyboard-response","18","94209","0.0-3.0-1.7","","","Repeat","n","false"
"null","<div style=""font-size:60px;"">+</div>","null","html-keyboard-response","19","94729","0.0-3.0-0.8","","fixation","","",""
"916","Set1/090a.jpg","78","image-keyboard-response","20","95647","0.0-3.0-1.8","","","Repeat","n","true"
"null","<div style=""font-size:60px;"">+</div>","null","html-keyboard-response","21","96170","0.0-3.0-0.9","","fixation","","",""
"930","Set1/148b.jpg","79","image-keyboard-response","22","97102","0.0-3.0-1.9","","","Update","n","false"
"null","<div style=""font-size:60px;"">+</div>","null","html-keyboard-response","23","97610","0.0-3.0-0.10","","fixation","","",""
"1177","Set1/172a.jpg","79","image-keyboard-response","24","98791","0.0-3.0-1.10","","","Set_2_Only","o","true"
"null","<div style=""font-size:60px;"">+</div>","null","html-keyboard-response","25","99315","0.0-3.0-0.11","","fixation","","",""
"1148","Set1/035a.jpg","79","image-keyboard-response","26","100464","0.0-3.0-1.11","","","Repeat","n","false"
"null","<div style=""font-size:60px;"">+</div>","null","html-keyboard-response","27","100986","0.0-3.0-0.12","","fixation","","",""
"1150","Set1/170a.jpg","78","image-keyboard-response","28","102139","0.0-3.0-1.12","","","Set_2_Only","n","true"
"null","<div style=""font-size:60px;"">+</div>","null","html-keyboard-response","29","102659","0.0-3.0-0.13","","fixation","","",""
"1181","Set1/179a.jpg","79","image-keyboard-response","30","103840","0.0-3.0-1.13","","","Set_2_Only","o","true"
"null","<div style=""font-size:60px;"">+</div>","null","html-keyboard-response","31","104346","0.0-3.0-0.14","","fixation","","",""
"1494","Set1/153b.jpg","79","image-keyboard-response","32","105842","0.0-3.0-1.14","","","Update","n","false"
"null","<div style=""font-size:60px;"">+</div>","null","html-keyboard-response","33","106348","0.0-3.0-0.15","","fixation","","",""
"984","Set1/083a.jpg","79","image-keyboard-response","34","107336","0.0-3.0-1.15","","","Repeat","n","false"
"null","<div style=""font-size:60px;"">+</div>","null","html-keyboard-response","35","107847","0.0-3.0-0.16","","fixation","","",""
"1720","Set1/126b.jpg","78","image-keyboard-response","36","109569","0.0-3.0-1.16","","","Update","n","true"
"null","<div style=""font-size:60px;"">+</div>","null","html-keyboard-response","37","110088","0.0-3.0-0.17","","fixation","","",""
"1141","Set1/135b.jpg","79","image-keyboard-response","38","111234","0.0-3.0-1.17","","","Update","n","false"
"null","<div style=""font-size:60px;"">+</div>","null","html-keyboard-response","39","111733","0.0-3.0-0.18","","fixation","","",""
"1007","Set1/108b.jpg","79","image-keyboard-response","40","112743","0.0-3.0-1.18","","","Update","n","false"
"null","<div style=""font-size:60px;"">+</div>","null","html-keyboard-response","41","113262","0.0-3.0-0.19","","fixation","","",""
"946","Set1/142b.jpg","79","image-keyboard-response","42","114211","0.0-3.0-1.19","","","Update","o","true"
"null","<div style=""font-size:60px;"">+</div>","null","html-keyboard-response","43","114722","0.0-3.0-0.20","","fixation","","",""
"1176","Set1/138b.jpg","78","image-keyboard-response","44","115900","0.0-3.0-1.20","","","Update","n","true"
"null","<div style=""font-size:60px;"">+</div>","null","html-keyboard-response","45","116404","0.0-3.0-0.21","","fixation","","",""
"1316","Set1/171a.jpg","78","image-keyboard-response","46","117724","0.0-3.0-1.21","","","Set_2_Only","n","true"
"null","<div style=""font-size:60px;"">+</div>","null","html-keyboard-response","47","118241","0.0-3.0-0.22","","fixation","","",""
"1005","Set1/148b.jpg","79","image-keyboard-response","48","119246","0.0-3.0-1.22","","","Update","o","true"
"null","<div style=""font-size:60px;"">+</div>","null","html-keyboard-response","49","119757","0.0-3.0-0.23","","fixation","","",""
"1053","Set1/083a.jpg","79","image-keyboard-response","50","120810","0.0-3.0-1.23","","","Repeat","o","true"
"null","<div style=""font-size:60px;"">+</div>","null","html-keyboard-response","51","121318","0.0-3.0-0.24","","fixation","","",""
"1843","Set1/141b.jpg","79","image-keyboard-response","52","123165","0.0-3.0-1.24","","","Update","n","false"
"null","<div style=""font-size:60px;"">+</div>","null","html-keyboard-response","53","123678","0.0-3.0-0.25","","fixation","","",""
"1926","Set1/123b.jpg","78","image-keyboard-response","54","125608","0.0-3.0-1.25","","","Update","n","true"
"null","<div style=""font-size:60px;"">+</div>","null","html-keyboard-response","55","126116","0.0-3.0-0.26","","fixation","","",""
"838","Set1/145b.jpg","78","image-keyboard-response","56","126956","0.0-3.0-1.26","","","Update","n","true"
"null","<div style=""font-size:60px;"">+</div>","null","html-keyboard-response","57","127474","0.0-3.0-0.27","","fixation","","",""
"914","Set1/175a.jpg","78","image-keyboard-response","58","128392","0.0-3.0-1.27","","","Set_2_Only","n","true"
"null","<div style=""font-size:60px;"">+</div>","null","html-keyboard-response","59","128905","0.0-3.0-0.28","","fixation","","",""
"1172","Set1/177a.jpg","78","image-keyboard-response","60","130079","0.0-3.0-1.28","","","Set_2_Only","n","true"
"null","<div style=""font-size:60px;"">+</div>","null","html-keyboard-response","61","130583","0.0-3.0-0.29","","fixation","","",""
"1058","Set1/119b.jpg","78","image-keyboard-response","62","131645","0.0-3.0-1.29","","","Update","n","true"
"null","<div style=""font-size:60px;"">+</div>","null","html-keyboard-response","63","132146","0.0-3.0-0.30","","fixation","","",""
"789","Set1/177a.jpg","78","image-keyboard-response","64","132937","0.0-3.0-1.30","","","Set_2_Only","o","false"
"null","<div style=""font-size:60px;"">+</div>","null","html-keyboard-response","65","133464","0.0-3.0-0.31","","fixation","","",""
"1092","Set1/038a.jpg","78","image-keyboard-response","66","134559","0.0-3.0-1.31","","","Repeat","n","true"
"null","<div style=""font-size:60px;"">+</div>","null","html-keyboard-response","67","135074","0.0-3.0-0.32","","fixation","","",""
"667","Set1/035a.jpg","79","image-keyboard-response","68","135745","0.0-3.0-1.32","","","Repeat","o","true"
"null","<div style=""font-size:60px;"">+</div>","null","html-keyboard-response","69","136253","0.0-3.0-0.33","","fixation","","",""
"868","Set1/171a.jpg","79","image-keyboard-response","70","137121","0.0-3.0-1.33","","","Set_2_Only","o","true"
"null","<div style=""font-size:60px;"">+</div>","null","html-keyboard-response","71","137647","0.0-3.0-0.34","","fixation","","",""
"1540","Set1/157b.jpg","79","image-keyboard-response","72","139190","0.0-3.0-1.34","","","Update","n","false"
"null","<div style=""font-size:60px;"">+</div>","null","html-keyboard-response","73","139710","0.0-3.0-0.35","","fixation","","",""
"965","Set1/170a.jpg","79","image-keyboard-response","74","140677","0.0-3.0-1.35","","","Set_2_Only","o","true"
"null","<div style=""font-size:60px;"">+</div>","null","html-keyboard-response","75","141197","0.0-3.0-0.36","","fixation","","",""
"957","Set1/135b.jpg","79","image-keyboard-response","76","142156","0.0-3.0-1.36","","","Update","o","true"
"null","<div style=""font-size:60px;"">+</div>","null","html-keyboard-response","77","142671","0.0-3.0-0.37","","fixation","","",""
"889","Set1/090a.jpg","79","image-keyboard-response","78","143562","0.0-3.0-1.37","","","Repeat","o","true"
"null","<div style=""font-size:60px;"">+</div>","null","html-keyboard-response","79","144077","0.0-3.0-0.38","","fixation","","",""
"864","Set1/095a.jpg","79","image-keyboard-response","80","144945","0.0-3.0-1.38","","","Repeat","o","true"
"null","<div style=""font-size:60px;"">+</div>","null","html-keyboard-response","81","145452","0.0-3.0-0.39","","fixation","","",""
"786","Set1/108b.jpg","79","image-keyboard-response","82","146241","0.0-3.0-1.39","","","Update","o","true"
"null","<div style=""font-size:60px;"">+</div>","null","html-keyboard-response","83","146768","0.0-3.0-0.40","","fixation","","",""
"1288","Set1/040a.jpg","79","image-keyboard-response","84","148061","0.0-3.0-1.40","","","Repeat","n","false"
"null","<div style=""font-size:60px;"">+</div>","null","html-keyboard-response","85","148575","0.0-3.0-0.41","","fixation","","",""
"1183","Set1/058a.jpg","79","image-keyboard-response","86","149761","0.0-3.0-1.41","","","Repeat","n","false"
"null","<div style=""font-size:60px;"">+</div>","null","html-keyboard-response","87","150279","0.0-3.0-0.42","","fixation","","",""
"1183","Set1/140b.jpg","79","image-keyboard-response","88","151464","0.0-3.0-1.42","","","Update","n","false"
"null","<div style=""font-size:60px;"">+</div>","null","html-keyboard-response","89","151967","0.0-3.0-0.43","","fixation","","",""
"1153","Set1/037a.jpg","79","image-keyboard-response","90","153125","0.0-3.0-1.43","","","Repeat","o","true"
"null","<div style=""font-size:60px;"">+</div>","null","html-keyboard-response","91","153638","0.0-3.0-0.44","","fixation","","",""
"824","Set1/153b.jpg","79","image-keyboard-response","92","154467","0.0-3.0-1.44","","","Update","o","true"
"null","<div style=""font-size:60px;"">+</div>","null","html-keyboard-response","93","154984","0.0-3.0-0.45","","fixation","","",""
"1235","Set1/168a.jpg","78","image-keyboard-response","94","156221","0.0-3.0-1.45","","","Set_2_Only","n","true"
"null","<div style=""font-size:60px;"">+</div>","null","html-keyboard-response","95","156747","0.0-3.0-0.46","","fixation","","",""
"1772","Set1/091a.jpg","78","image-keyboard-response","96","158522","0.0-3.0-1.46","","","Repeat","n","true"
"null","<div style=""font-size:60px;"">+</div>","null","html-keyboard-response","97","159040","0.0-3.0-0.47","","fixation","","",""
"931","Set1/119b.jpg","79","image-keyboard-response","98","159975","0.0-3.0-1.47","","","Update","o","true"
"null","<div style=""font-size:60px;"">+</div>","null","html-keyboard-response","99","160487","0.0-3.0-0.48","","fixation","","",""
"931","Set1/168a.jpg","79","image-keyboard-response","100","161420","0.0-3.0-1.48","","","Set_2_Only","o","true"
"null","<div style=""font-size:60px;"">+</div>","null","html-keyboard-response","101","161940","0.0-3.0-0.49","","fixation","","",""
"764","Set1/038a.jpg","79","image-keyboard-response","102","162708","0.0-3.0-1.49","","","Repeat","o","true"
"null","<div style=""font-size:60px;"">+</div>","null","html-keyboard-response","103","163221","0.0-3.0-0.50","","fixation","","",""
"1292","Set1/154b.jpg","79","image-keyboard-response","104","164515","0.0-3.0-1.50","","","Update","n","false"
"null","<div style=""font-size:60px;"">+</div>","null","html-keyboard-response","105","165035","0.0-3.0-0.51","","fixation","","",""
"1248","Set1/067a.jpg","78","image-keyboard-response","106","166285","0.0-3.0-1.51","","","Repeat","n","true"
"null","<div style=""font-size:60px;"">+</div>","null","html-keyboard-response","107","166803","0.0-3.0-0.52","","fixation","","",""
"1093","Set1/080a.jpg","79","image-keyboard-response","108","167898","0.0-3.0-1.52","","","Repeat","o","true"
"null","<div style=""font-size:60px;"">+</div>","null","html-keyboard-response","109","168408","0.0-3.0-0.53","","fixation","","",""
"940","Set1/154b.jpg","79","image-keyboard-response","110","169348","0.0-3.0-1.53","","","Update","o","true"
"null","<div style=""font-size:60px;"">+</div>","null","html-keyboard-response","111","169877","0.0-3.0-0.54","","fixation","","",""
"2573","Set1/087a.jpg","79","image-keyboard-response","112","172453","0.0-3.0-1.54","","","Repeat","n","false"
"null","<div style=""font-size:60px;"">+</div>","null","html-keyboard-response","113","172972","0.0-3.0-0.55","","fixation","","",""
"2025","Set1/149b.jpg","79","image-keyboard-response","114","175000","0.0-3.0-1.55","","","Update","n","false"
"null","<div style=""font-size:60px;"">+</div>","null","html-keyboard-response","115","175504","0.0-3.0-0.56","","fixation","","",""
"1056","Set1/173a.jpg","78","image-keyboard-response","116","176562","0.0-3.0-1.56","","","Set_2_Only","n","true"
"null","<div style=""font-size:60px;"">+</div>","null","html-keyboard-response","117","177076","0.0-3.0-0.57","","fixation","","",""
"856","Set1/040a.jpg","79","image-keyboard-response","118","177935","0.0-3.0-1.57","","","Repeat","o","true"
"null","<div style=""font-size:60px;"">+</div>","null","html-keyboard-response","119","178455","0.0-3.0-0.58","","fixation","","",""
"764","Set1/058a.jpg","79","image-keyboard-response","120","179221","0.0-3.0-1.58","","","Repeat","o","true"
"null","<div style=""font-size:60px;"">+</div>","null","html-keyboard-response","121","179743","0.0-3.0-0.59","","fixation","","",""
"1396","Set1/173a.jpg","79","image-keyboard-response","122","181139","0.0-3.0-1.59","","","Set_2_Only","o","true"
"null","<div style=""font-size:60px;"">+</div>","null","html-keyboard-response","123","181664","0.0-3.0-0.60","","fixation","","",""
"861","Set1/140b.jpg","79","image-keyboard-response","124","182527","0.0-3.0-1.60","","","Update","o","true"
"null","<div style=""font-size:60px;"">+</div>","null","html-keyboard-response","125","183040","0.0-3.0-0.61","","fixation","","",""
"1371","Set1/187a.jpg","78","image-keyboard-response","126","184413","0.0-3.0-1.61","","","Set_2_Only","n","true"
"null","<div style=""font-size:60px;"">+</div>","null","html-keyboard-response","127","184931","0.0-3.0-0.62","","fixation","","",""
"786","Set1/067a.jpg","79","image-keyboard-response","128","185717","0.0-3.0-1.62","","","Repeat","o","true"
"null","<div style=""font-size:60px;"">+</div>","null","html-keyboard-response","129","186228","0.0-3.0-0.63","","fixation","","",""
"773","Set1/126b.jpg","79","image-keyboard-response","130","187005","0.0-3.0-1.63","","","Update","o","true"
"null","<div style=""font-size:60px;"">+</div>","null","html-keyboard-response","131","187508","0.0-3.0-0.64","","fixation","","",""
"1547","Set1/188a.jpg","78","image-keyboard-response","132","189058","0.0-3.0-1.64","","","Set_2_Only","n","true"
"null","<div style=""font-size:60px;"">+</div>","null","html-keyboard-response","133","189576","0.0-3.0-0.65","","fixation","","",""
"1060","Set1/145b.jpg","79","image-keyboard-response","134","190638","0.0-3.0-1.65","","","Update","o","true"
"null","<div style=""font-size:60px;"">+</div>","null","html-keyboard-response","135","191155","0.0-3.0-0.66","","fixation","","",""
"817","Set1/075a.jpg","79","image-keyboard-response","136","191975","0.0-3.0-1.66","","","Repeat","o","true"
"null","<div style=""font-size:60px;"">+</div>","null","html-keyboard-response","137","192478","0.0-3.0-0.67","","fixation","","",""
"2042","Set1/059a.jpg","78","image-keyboard-response","138","194522","0.0-3.0-1.67","","","Repeat","n","true"
"null","<div style=""font-size:60px;"">+</div>","null","html-keyboard-response","139","195046","0.0-3.0-0.68","","fixation","","",""
"893","Set1/149b.jpg","79","image-keyboard-response","140","195940","0.0-3.0-1.68","","","Update","o","true"
"null","<div style=""font-size:60px;"">+</div>","null","html-keyboard-response","141","196457","0.0-3.0-0.69","","fixation","","",""
"761","Set1/087a.jpg","79","image-keyboard-response","142","197221","0.0-3.0-1.69","","","Repeat","o","true"
"null","<div style=""font-size:60px;"">+</div>","null","html-keyboard-response","143","197738","0.0-3.0-0.70","","fixation","","",""
"807","Set1/187a.jpg","79","image-keyboard-response","144","198547","0.0-3.0-1.70","","","Set_2_Only","o","true"
"null","<div style=""font-size:60px;"">+</div>","null","html-keyboard-response","145","199056","0.0-3.0-0.71","","fixation","","",""
"717","Set1/059a.jpg","79","image-keyboard-response","146","199775","0.0-3.0-1.71","","","Repeat","o","true"
"null","<div style=""font-size:60px;"">+</div>","null","html-keyboard-response","147","200281","0.0-3.0-0.72","","fixation","","",""
"737","Set1/157b.jpg","79","image-keyboard-response","148","201018","0.0-3.0-1.72","","","Update","o","true"
"null","<div style=""font-size:60px;"">+</div>","null","html-keyboard-response","149","201532","0.0-3.0-0.73","","fixation","","",""
"1016","Set1/123b.jpg","79","image-keyboard-response","150","202554","0.0-3.0-1.73","","","Update","o","true"
"null","<div style=""font-size:60px;"">+</div>","null","html-keyboard-response","151","203065","0.0-3.0-0.74","","fixation","","",""
"970","Set1/175a.jpg","79","image-keyboard-response","152","204037","0.0-3.0-1.74","","","Set_2_Only","o","true"
"null","<div style=""font-size:60px;"">+</div>","null","html-keyboard-response","153","204548","0.0-3.0-0.75","","fixation","","",""
"784","Set1/188a.jpg","79","image-keyboard-response","154","205336","0.0-3.0-1.75","","","Set_2_Only","o","true"
"null","<div style=""font-size:60px;"">+</div>","null","html-keyboard-response","155","205847","0.0-3.0-0.76","","fixation","","",""
"809","Set1/039a.jpg","79","image-keyboard-response","156","206661","0.0-3.0-1.76","","","Repeat","o","true"
"null","<div style=""font-size:60px;"">+</div>","null","html-keyboard-response","157","207190","0.0-3.0-0.77","","fixation","","",""
"946","Set1/141b.jpg","79","image-keyboard-response","158","208141","0.0-3.0-1.77","","","Update","o","true"
"null","<div style=""font-size:60px;"">+</div>","null","html-keyboard-response","159","208659","0.0-3.0-0.78","","fixation","","",""
"884","Set1/091a.jpg","79","image-keyboard-response","160","209547","0.0-3.0-1.78","","","Repeat","o","true"
"null","<div style=""font-size:60px;"">+</div>","null","html-keyboard-response","161","210051","0.0-3.0-0.79","","fixation","","",""
"814","Set1/138b.jpg","79","image-keyboard-response","162","210868","0.0-3.0-1.79","","","Update","o","true"
"null","<div style=""font-size:60px;"">+</div>","null","html-keyboard-response","163","211378","0.0-3.0-0.80","","fixation","","",""
"1784","Set1/055a.jpg","78","image-keyboard-response","164","213165","0.0-3.0-1.80","","","Repeat","n","true"
"null","<div style=""font-size:60px;"">+</div>","null","html-keyboard-response","165","213675","0.0-3.0-0.81","","fixation","","",""
"1536","Set1/128b.jpg","78","image-keyboard-response","166","215214","0.0-3.0-1.81","","","Update","n","true"
"null","<div style=""font-size:60px;"">+</div>","null","html-keyboard-response","167","215722","0.0-3.0-0.82","","fixation","","",""
"1369","Set1/046a.jpg","79","image-keyboard-response","168","217095","0.0-3.0-1.82","","","Repeat","n","false"
"null","<div style=""font-size:60px;"">+</div>","null","html-keyboard-response","169","217613","0.0-3.0-0.83","","fixation","","",""
"1350","Set1/139b.jpg","79","image-keyboard-response","170","218968","0.0-3.0-1.83","","","Update","n","false"
"null","<div style=""font-size:60px;"">+</div>","null","html-keyboard-response","171","219473","0.0-3.0-0.84","","fixation","","",""
"1361","Set1/084a.jpg","79","image-keyboard-response","172","220837","0.0-3.0-1.84","","","Repeat","n","false"
"null","<div style=""font-size:60px;"">+</div>","null","html-keyboard-response","173","221357","0.0-3.0-0.85","","fixation","","",""
"1353","Set1/147b.jpg","78","image-keyboard-response","174","222715","0.0-3.0-1.85","","","Update","n","true"
"null","<div style=""font-size:60px;"">+</div>","null","html-keyboard-response","175","223228","0.0-3.0-0.86","","fixation","","",""
"2114","Set1/176a.jpg","78","image-keyboard-response","176","225344","0.0-3.0-1.86","","","Set_2_Only","n","true"
"null","<div style=""font-size:60px;"">+</div>","null","html-keyboard-response","177","225852","0.0-3.0-0.87","","fixation","","",""
"1030","Set1/042a.jpg","79","image-keyboard-response","178","226884","0.0-3.0-1.87","","","Repeat","n","false"
"null","<div style=""font-size:60px;"">+</div>","null","html-keyboard-response","179","227399","0.0-3.0-0.88","","fixation","","",""
"2679","Set1/114b.jpg","79","image-keyboard-response","180","230081","0.0-3.0-1.88","","","Update","n","false"
"null","<div style=""font-size:60px;"">+</div>","null","html-keyboard-response","181","230587","0.0-3.0-0.89","","fixation","","",""
"1624","Set1/064a.jpg","78","image-keyboard-response","182","232213","0.0-3.0-1.89","","","Repeat","n","true"
"null","<div style=""font-size:60px;"">+</div>","null","html-keyboard-response","183","232728","0.0-3.0-0.90","","fixation","","",""
"1021","Set1/036a.jpg","79","image-keyboard-response","184","233752","0.0-3.0-1.90","","","Repeat","n","false"
"null","<div style=""font-size:60px;"">+</div>","null","html-keyboard-response","185","234260","0.0-3.0-0.91","","fixation","","",""
"740","Set1/139b.jpg","79","image-keyboard-response","186","235000","0.0-3.0-1.91","","","Update","o","true"
"null","<div style=""font-size:60px;"">+</div>","null","html-keyboard-response","187","235508","0.0-3.0-0.92","","fixation","","",""
"747","Set1/128b.jpg","79","image-keyboard-response","188","236258","0.0-3.0-1.92","","","Update","o","true"
"null","<div style=""font-size:60px;"">+</div>","null","html-keyboard-response","189","236766","0.0-3.0-0.93","","fixation","","",""
"1207","Set1/044a.jpg","79","image-keyboard-response","190","237977","0.0-3.0-1.93","","","Repeat","n","false"
"null","<div style=""font-size:60px;"">+</div>","null","html-keyboard-response","191","238478","0.0-3.0-0.94","","fixation","","",""
"945","Set1/162a.jpg","78","image-keyboard-response","192","239427","0.0-3.0-1.94","","","Set_2_Only","n","true"
"null","<div style=""font-size:60px;"">+</div>","null","html-keyboard-response","193","239942","0.0-3.0-0.95","","fixation","","",""
"1014","Set1/074a.jpg","79","image-keyboard-response","194","240958","0.0-3.0-1.95","","","Repeat","n","false"
"null","<div style=""font-size:60px;"">+</div>","null","html-keyboard-response","195","241466","0.0-3.0-0.96","","fixation","","",""
"1099","Set1/114b.jpg","79","image-keyboard-response","196","242566","0.0-3.0-1.96","","","Update","o","true"
"null","<div style=""font-size:60px;"">+</div>","null","html-keyboard-response","197","243084","0.0-3.0-0.97","","fixation","","",""
"1280","Set1/159b.jpg","78","image-keyboard-response","198","244366","0.0-3.0-1.97","","","Update","n","true"
"null","<div style=""font-size:60px;"">+</div>","null","html-keyboard-response","199","244873","0.0-3.0-0.98","","fixation","","",""
"1149","Set1/143b.jpg","79","image-keyboard-response","200","246026","0.0-3.0-1.98","","","Update","n","false"
"null","<div style=""font-size:60px;"">+</div>","null","html-keyboard-response","201","246545","0.0-3.0-0.99","","fixation","","",""
"1979","Set1/103b.jpg","78","image-keyboard-response","202","248527","0.0-3.0-1.99","","","Update","n","true"
"null","<div style=""font-size:60px;"">+</div>","null","html-keyboard-response","203","249030","0.0-3.0-0.100","","fixation","","",""
"823","Set1/047a.jpg","79","image-keyboard-response","204","249856","0.0-3.0-1.100","","","Repeat","n","false"
"null","<div style=""font-size:60px;"">+</div>","null","html-keyboard-response","205","250374","0.0-3.0-0.101","","fixation","","",""
"780","Set1/064a.jpg","79","image-keyboard-response","206","251156","0.0-3.0-1.101","","","Repeat","o","true"
"null","<div style=""font-size:60px;"">+</div>","null","html-keyboard-response","207","251671","0.0-3.0-0.102","","fixation","","",""
"1005","Set1/191a.jpg","78","image-keyboard-response","208","252678","0.0-3.0-1.102","","","Set_2_Only","n","true"
"null","<div style=""font-size:60px;"">+</div>","null","html-keyboard-response","209","253190","0.0-3.0-0.103","","fixation","","",""
"1284","Set1/071a.jpg","79","image-keyboard-response","210","254476","0.0-3.0-1.103","","","Repeat","n","false"
"null","<div style=""font-size:60px;"">+</div>","null","html-keyboard-response","211","254991","0.0-3.0-0.104","","fixation","","",""
"1371","Set1/096a.jpg","79","image-keyboard-response","212","256364","0.0-3.0-1.104","","","Repeat","n","false"
"null","<div style=""font-size:60px;"">+</div>","null","html-keyboard-response","213","256879","0.0-3.0-0.105","","fixation","","",""
"1109","Set1/098b.jpg","79","image-keyboard-response","214","257991","0.0-3.0-1.105","","","Update","n","false"
"null","<div style=""font-size:60px;"">+</div>","null","html-keyboard-response","215","258508","0.0-3.0-0.106","","fixation","","",""
"1565","Set1/106b.jpg","78","image-keyboard-response","216","260077","0.0-3.0-1.106","","","Update","n","true"
"null","<div style=""font-size:60px;"">+</div>","null","html-keyboard-response","217","260587","0.0-3.0-0.107","","fixation","","",""
"1074","Set1/159b.jpg","79","image-keyboard-response","218","261663","0.0-3.0-1.107","","","Update","o","true"
"null","<div style=""font-size:60px;"">+</div>","null","html-keyboard-response","219","262181","0.0-3.0-0.108","","fixation","","",""
"931","Set1/071a.jpg","79","image-keyboard-response","220","263114","0.0-3.0-1.108","","","Repeat","o","true"
"null","<div style=""font-size:60px;"">+</div>","null","html-keyboard-response","221","263627","0.0-3.0-0.109","","fixation","","",""
"988","Set1/047a.jpg","79","image-keyboard-response","222","264617","0.0-3.0-1.109","","","Repeat","o","true"
"null","<div style=""font-size:60px;"">+</div>","null","html-keyboard-response","223","265126","0.0-3.0-0.110","","fixation","","",""
"1761","Set1/144b.jpg","78","image-keyboard-response","224","266891","0.0-3.0-1.110","","","Update","n","true"
"null","<div style=""font-size:60px;"">+</div>","null","html-keyboard-response","225","267408","0.0-3.0-0.111","","fixation","","",""
"1469","Set1/069a.jpg","79","image-keyboard-response","226","268882","0.0-3.0-1.111","","","Repeat","n","false"
"null","<div style=""font-size:60px;"">+</div>","null","html-keyboard-response","227","269408","0.0-3.0-0.112","","fixation","","",""
"1237","Set1/034a.jpg","79","image-keyboard-response","228","270648","0.0-3.0-1.112","","","Repeat","n","false"
"null","<div style=""font-size:60px;"">+</div>","null","html-keyboard-response","229","271158","0.0-3.0-0.113","","fixation","","",""
"824","Set1/050a.jpg","79","image-keyboard-response","230","271984","0.0-3.0-1.113","","","Repeat","n","false"
"null","<div style=""font-size:60px;"">+</div>","null","html-keyboard-response","231","272487","0.0-3.0-0.114","","fixation","","",""
"955","Set1/068a.jpg","79","image-keyboard-response","232","273445","0.0-3.0-1.114","","","Repeat","n","false"
"null","<div style=""font-size:60px;"">+</div>","null","html-keyboard-response","233","273956","0.0-3.0-0.115","","fixation","","",""
"1460","Set1/130b.jpg","79","image-keyboard-response","234","275418","0.0-3.0-1.115","","","Update","n","false"
"null","<div style=""font-size:60px;"">+</div>","null","html-keyboard-response","235","275928","0.0-3.0-0.116","","fixation","","",""
"717","Set1/046a.jpg","79","image-keyboard-response","236","276647","0.0-3.0-1.116","","","Repeat","o","true"
"null","<div style=""font-size:60px;"">+</div>","null","html-keyboard-response","237","277158","0.0-3.0-0.117","","fixation","","",""
"1128","Set1/073a.jpg","79","image-keyboard-response","238","278288","0.0-3.0-1.117","","","Repeat","n","false"
"null","<div style=""font-size:60px;"">+</div>","null","html-keyboard-response","239","278800","0.0-3.0-0.118","","fixation","","",""
"1084","Set1/078a.jpg","79","image-keyboard-response","240","279887","0.0-3.0-1.118","","","Repeat","n","false"
"null","<div style=""font-size:60px;"">+</div>","null","html-keyboard-response","241","280401","0.0-3.0-0.119","","fixation","","",""
"1014","Set1/147b.jpg","79","image-keyboard-response","242","281415","0.0-3.0-1.119","","","Update","o","true"
"null","<div style=""font-size:60px;"">+</div>","null","html-keyboard-response","243","281928","0.0-3.0-0.120","","fixation","","",""
"1203","Set1/066a.jpg","79","image-keyboard-response","244","283134","0.0-3.0-1.120","","","Repeat","n","false"
"null","<div style=""font-size:60px;"">+</div>","null","html-keyboard-response","245","283664","0.0-3.0-0.121","","fixation","","",""
"981","Set1/106b.jpg","79","image-keyboard-response","246","284647","0.0-3.0-1.121","","","Update","o","true"
"null","<div style=""font-size:60px;"">+</div>","null","html-keyboard-response","247","285163","0.0-3.0-0.122","","fixation","","",""
"1780","Set1/112b.jpg","79","image-keyboard-response","248","286947","0.0-3.0-1.122","","","Update","n","false"
"null","<div style=""font-size:60px;"">+</div>","null","html-keyboard-response","249","287460","0.0-3.0-0.123","","fixation","","",""
"1132","Set1/185a.jpg","78","image-keyboard-response","250","288596","0.0-3.0-1.123","","","Set_2_Only","n","true"
"null","<div style=""font-size:60px;"">+</div>","null","html-keyboard-response","251","289100","0.0-3.0-0.124","","fixation","","",""
"751","Set1/036a.jpg","79","image-keyboard-response","252","289856","0.0-3.0-1.124","","","Repeat","o","true"
"null","<div style=""font-size:60px;"">+</div>","null","html-keyboard-response","253","290367","0.0-3.0-0.125","","fixation","","",""
"1433","Set1/098b.jpg","79","image-keyboard-response","254","295800","0.0-3.0-1.125","","","Update","o","true"
"null","<div style=""font-size:60px;"">+</div>","null","html-keyboard-response","255","296304","0.0-3.0-0.126","","fixation","","",""
"1043","Set1/096a.jpg","79","image-keyboard-response","256","297351","0.0-3.0-1.126","","","Repeat","o","true"
"null","<div style=""font-size:60px;"">+</div>","null","html-keyboard-response","257","297858","0.0-3.0-0.127","","fixation","","",""
"809","Set1/185a.jpg","79","image-keyboard-response","258","298668","0.0-3.0-1.127","","","Set_2_Only","o","true"
"null","<div style=""font-size:60px;"">+</div>","null","html-keyboard-response","259","299183","0.0-3.0-0.128","","fixation","","",""
"711","Set1/066a.jpg","79","image-keyboard-response","260","299895","0.0-3.0-1.128","","","Repeat","o","true"
"null","<div style=""font-size:60px;"">+</div>","null","html-keyboard-response","261","300404","0.0-3.0-0.129","","fixation","","",""
"784","Set1/144b.jpg","79","image-keyboard-response","262","301193","0.0-3.0-1.129","","","Update","o","true"
"null","<div style=""font-size:60px;"">+</div>","null","html-keyboard-response","263","301708","0.0-3.0-0.130","","fixation","","",""
"687","Set1/112b.jpg","79","image-keyboard-response","264","302397","0.0-3.0-1.130","","","Update","o","true"
"null","<div style=""font-size:60px;"">+</div>","null","html-keyboard-response","265","302907","0.0-3.0-0.131","","fixation","","",""
"853","Set1/162a.jpg","79","image-keyboard-response","266","303763","0.0-3.0-1.131","","","Set_2_Only","o","true"
"null","<div style=""font-size:60px;"">+</div>","null","html-keyboard-response","267","304279","0.0-3.0-0.132","","fixation","","",""
"842","Set1/176a.jpg","79","image-keyboard-response","268","305123","0.0-3.0-1.132","","","Set_2_Only","o","true"
"null","<div style=""font-size:60px;"">+</div>","null","html-keyboard-response","269","305645","0.0-3.0-0.133","","fixation","","",""
"724","Set1/050a.jpg","79","image-keyboard-response","270","306371","0.0-3.0-1.133","","","Repeat","o","true"
"null","<div style=""font-size:60px;"">+</div>","null","html-keyboard-response","271","306886","0.0-3.0-0.134","","fixation","","",""
"680","Set1/078a.jpg","79","image-keyboard-response","272","307569","0.0-3.0-1.134","","","Repeat","o","true"
"null","<div style=""font-size:60px;"">+</div>","null","html-keyboard-response","273","308086","0.0-3.0-0.135","","fixation","","",""
"1267","Set1/150b.jpg","79","image-keyboard-response","274","309355","0.0-3.0-1.135","","","Update","n","false"
"null","<div style=""font-size:60px;"">+</div>","null","html-keyboard-response","275","309866","0.0-3.0-0.136","","fixation","","",""
"1126","Set1/043a.jpg","79","image-keyboard-response","276","310996","0.0-3.0-1.136","","","Repeat","n","false"
"null","<div style=""font-size:60px;"">+</div>","null","html-keyboard-response","277","311525","0.0-3.0-0.137","","fixation","","",""
"1990","Set1/100b.jpg","79","image-keyboard-response","278","313518","0.0-3.0-1.137","","","Update","n","false"
"null","<div style=""font-size:60px;"">+</div>","null","html-keyboard-response","279","314028","0.0-3.0-0.138","","fixation","","",""
"715","Set1/042a.jpg","79","image-keyboard-response","280","314747","0.0-3.0-1.138","","","Repeat","o","true"
"null","<div style=""font-size:60px;"">+</div>","null","html-keyboard-response","281","315258","0.0-3.0-0.139","","fixation","","",""
"1039","Set1/131b.jpg","79","image-keyboard-response","282","316299","0.0-3.0-1.139","","","Update","n","false"
"null","<div style=""font-size:60px;"">+</div>","null","html-keyboard-response","283","316805","0.0-3.0-0.140","","fixation","","",""
"860","Set1/073a.jpg","79","image-keyboard-response","284","317668","0.0-3.0-1.140","","","Repeat","o","true"
"null","<div style=""font-size:60px;"">+</div>","null","html-keyboard-response","285","318181","0.0-3.0-0.141","","fixation","","",""
"810","Set1/074a.jpg","79","image-keyboard-response","286","318993","0.0-3.0-1.141","","","Repeat","o","true"
"null","<div style=""font-size:60px;"">+</div>","null","html-keyboard-response","287","319508","0.0-3.0-0.142","","fixation","","",""
"828","Set1/034a.jpg","79","image-keyboard-response","288","320339","0.0-3.0-1.142","","","Repeat","o","true"
"null","<div style=""font-size:60px;"">+</div>","null","html-keyboard-response","289","320852","0.0-3.0-0.143","","fixation","","",""
"807","Set1/068a.jpg","79","image-keyboard-response","290","321663","0.0-3.0-1.143","","","Repeat","o","true"
"null","<div style=""font-size:60px;"">+</div>","null","html-keyboard-response","291","322169","0.0-3.0-0.144","","fixation","","",""
"874","Set1/191a.jpg","79","image-keyboard-response","292","323046","0.0-3.0-1.144","","","Set_2_Only","o","true"
"null","<div style=""font-size:60px;"">+</div>","null","html-keyboard-response","293","323568","0.0-3.0-0.145","","fixation","","",""
"640","Set1/131b.jpg","79","image-keyboard-response","294","324209","0.0-3.0-1.145","","","Update","o","true"
"null","<div style=""font-size:60px;"">+</div>","null","html-keyboard-response","295","324715","0.0-3.0-0.146","","fixation","","",""
"750","Set1/043a.jpg","79","image-keyboard-response","296","325469","0.0-3.0-1.146","","","Repeat","o","true"
"null","<div style=""font-size:60px;"">+</div>","null","html-keyboard-response","297","325996","0.0-3.0-0.147","","fixation","","",""
"1015","Set1/100b.jpg","79","image-keyboard-response","298","327011","0.0-3.0-1.147","","","Update","o","true"
"null","<div style=""font-size:60px;"">+</div>","null","html-keyboard-response","299","327524","0.0-3.0-0.148","","fixation","","",""
"807","Set1/055a.jpg","79","image-keyboard-response","300","328334","0.0-3.0-1.148","","","Repeat","o","true"
"null","<div style=""font-size:60px;"">+</div>","null","html-keyboard-response","301","328840","0.0-3.0-0.149","","fixation","","",""
"1404","Set1/041a.jpg","79","image-keyboard-response","302","330246","0.0-3.0-1.149","","","Repeat","n","false"
"null","<div style=""font-size:60px;"">+</div>","null","html-keyboard-response","303","330747","0.0-3.0-0.150","","fixation","","",""
"867","Set1/069a.jpg","79","image-keyboard-response","304","331617","0.0-3.0-1.150","","","Repeat","o","true"
"null","<div style=""font-size:60px;"">+</div>","null","html-keyboard-response","305","332123","0.0-3.0-0.151","","fixation","","",""
"1096","Set1/061a.jpg","79","image-keyboard-response","306","333221","0.0-3.0-1.151","","","Repeat","n","false"
"null","<div style=""font-size:60px;"">+</div>","null","html-keyboard-response","307","333731","0.0-3.0-0.152","","fixation","","",""
"776","Set1/103b.jpg","79","image-keyboard-response","308","334511","0.0-3.0-1.152","","","Update","o","true"
"null","<div style=""font-size:60px;"">+</div>","null","html-keyboard-response","309","335014","0.0-3.0-0.153","","fixation","","",""
"766","Set1/044a.jpg","79","image-keyboard-response","310","335784","0.0-3.0-1.153","","","Repeat","o","true"
"null","<div style=""font-size:60px;"">+</div>","null","html-keyboard-response","311","336300","0.0-3.0-0.154","","fixation","","",""
"699","Set1/150b.jpg","79","image-keyboard-response","312","337003","0.0-3.0-1.154","","","Update","o","true"
"null","<div style=""font-size:60px;"">+</div>","null","html-keyboard-response","313","337513","0.0-3.0-0.155","","fixation","","",""
"624","Set1/084a.jpg","79","image-keyboard-response","314","338142","0.0-3.0-1.155","","","Repeat","o","true"
"null","<div style=""font-size:60px;"">+</div>","null","html-keyboard-response","315","338645","0.0-3.0-0.156","","fixation","","",""
"666","Set1/130b.jpg","79","image-keyboard-response","316","339313","0.0-3.0-1.156","","","Update","o","true"
"null","<div style=""font-size:60px;"">+</div>","null","html-keyboard-response","317","339824","0.0-3.0-0.157","","fixation","","",""
"676","Set1/143b.jpg","79","image-keyboard-response","318","340504","0.0-3.0-1.157","","","Update","o","true"
"null","<div style=""font-size:60px;"">+</div>","null","html-keyboard-response","319","341028","0.0-3.0-0.158","","fixation","","",""
"764","Set1/061a.jpg","79","image-keyboard-response","320","341796","0.0-3.0-1.158","","","Repeat","o","true"
"null","<div style=""font-size:60px;"">+</div>","null","html-keyboard-response","321","342311","0.0-3.0-0.159","","fixation","","",""
"620","Set1/041a.jpg","79","image-keyboard-response","322","342933","0.0-3.0-1.159","","","Repeat","o","true"
"null","<div style=""font-size:60px;"">+</div>","null","html-keyboard-response","323","343453","0.0-3.0-0.160","","fixation","","",""
"1200","Set1/113b.jpg","78","image-keyboard-response","324","344657","0.0-3.0-1.160","","","Update","n","true"
"null","<div style=""font-size:60px;"">+</div>","null","html-keyboard-response","325","345172","0.0-3.0-0.161","","fixation","","",""
"1819","Set1/105b.jpg","78","image-keyboard-response","326","346993","0.0-3.0-1.161","","","Update","n","true"
"null","<div style=""font-size:60px;"">+</div>","null","html-keyboard-response","327","347504","0.0-3.0-0.162","","fixation","","",""
"1188","Set1/056a.jpg","79","image-keyboard-response","328","348694","0.0-3.0-1.162","","","Repeat","n","false"
"null","<div style=""font-size:60px;"">+</div>","null","html-keyboard-response","329","349204","0.0-3.0-0.163","","fixation","","",""
"658","Set1/070a.jpg","79","image-keyboard-response","330","349866","0.0-3.0-1.163","","","Repeat","n","false"
"null","<div style=""font-size:60px;"">+</div>","null","html-keyboard-response","331","350376","0.0-3.0-0.164","","fixation","","",""
"979","Set1/089a.jpg","79","image-keyboard-response","332","351357","0.0-3.0-1.164","","","Repeat","n","false"
"null","<div style=""font-size:60px;"">+</div>","null","html-keyboard-response","333","351868","0.0-3.0-0.165","","fixation","","",""
"1058","Set1/165a.jpg","78","image-keyboard-response","334","352928","0.0-3.0-1.165","","","Set_2_Only","n","true"
"null","<div style=""font-size:60px;"">+</div>","null","html-keyboard-response","335","353448","0.0-3.0-0.166","","fixation","","",""
"1501","Set1/065a.jpg","79","image-keyboard-response","336","354951","0.0-3.0-1.166","","","Repeat","n","false"
"null","<div style=""font-size:60px;"">+</div>","null","html-keyboard-response","337","355469","0.0-3.0-0.167","","fixation","","",""
"null","Set1/104b.jpg","null","image-keyboard-response","338","365490","0.0-3.0-1.167","","","Update","n","false"
"null","<div style=""font-size:60px;"">+</div>","null","html-keyboard-response","339","366005","0.0-3.0-0.168","","fixation","","",""
"1051","Set1/065a.jpg","79","image-keyboard-response","340","367058","0.0-3.0-1.168","","","Repeat","o","true"
"null","<div style=""font-size:60px;"">+</div>","null","html-keyboard-response","341","367583","0.0-3.0-0.169","","fixation","","",""
"1401","Set1/082a.jpg","78","image-keyboard-response","342","368988","0.0-3.0-1.169","","","Repeat","n","true"
"null","<div style=""font-size:60px;"">+</div>","null","html-keyboard-response","343","369501","0.0-3.0-0.170","","fixation","","",""
"1340","Set1/134b.jpg","78","image-keyboard-response","344","370844","0.0-3.0-1.170","","","Update","n","true"
"null","<div style=""font-size:60px;"">+</div>","null","html-keyboard-response","345","371353","0.0-3.0-0.171","","fixation","","",""
"1088","Set1/158b.jpg","78","image-keyboard-response","346","372443","0.0-3.0-1.171","","","Update","n","true"
"null","<div style=""font-size:60px;"">+</div>","null","html-keyboard-response","347","372958","0.0-3.0-0.172","","fixation","","",""
"1028","Set1/057a.jpg","79","image-keyboard-response","348","373989","0.0-3.0-1.172","","","Repeat","n","false"
"null","<div style=""font-size:60px;"">+</div>","null","html-keyboard-response","349","374492","0.0-3.0-0.173","","fixation","","",""
"794","Set1/105b.jpg","79","image-keyboard-response","350","375290","0.0-3.0-1.173","","","Update","o","true"
"null","<div style=""font-size:60px;"">+</div>","null","html-keyboard-response","351","375796","0.0-3.0-0.174","","fixation","","",""
"1040","Set1/161a.jpg","78","image-keyboard-response","352","376838","0.0-3.0-1.174","","","Set_2_Only","n","true"
"null","<div style=""font-size:60px;"">+</div>","null","html-keyboard-response","353","377362","0.0-3.0-0.175","","fixation","","",""
"1026","Set1/101b.jpg","79","image-keyboard-response","354","378392","0.0-3.0-1.175","","","Update","n","false"
"null","<div style=""font-size:60px;"">+</div>","null","html-keyboard-response","355","378905","0.0-3.0-0.176","","fixation","","",""
"743","Set1/089a.jpg","79","image-keyboard-response","356","379654","0.0-3.0-1.176","","","Repeat","o","true"
"null","<div style=""font-size:60px;"">+</div>","null","html-keyboard-response","357","380177","0.0-3.0-0.177","","fixation","","",""
"652","Set1/101b.jpg","79","image-keyboard-response","358","380831","0.0-3.0-1.177","","","Update","o","true"
"null","<div style=""font-size:60px;"">+</div>","null","html-keyboard-response","359","381346","0.0-3.0-0.178","","fixation","","",""
"870","Set1/134b.jpg","79","image-keyboard-response","360","382218","0.0-3.0-1.178","","","Update","o","true"
"null","<div style=""font-size:60px;"">+</div>","null","html-keyboard-response","361","382726","0.0-3.0-0.179","","fixation","","",""
"1257","Set1/161a.jpg","79","image-keyboard-response","362","383988","0.0-3.0-1.179","","","Set_2_Only","o","true"
"null","<div style=""font-size:60px;"">+</div>","null","html-keyboard-response","363","384490","0.0-3.0-0.180","","fixation","","",""
"1441","Set1/116b.jpg","79","image-keyboard-response","364","385935","0.0-3.0-1.180","","","Update","n","false"
"null","<div style=""font-size:60px;"">+</div>","null","html-keyboard-response","365","386448","0.0-3.0-0.181","","fixation","","",""
"1065","Set1/152b.jpg","79","image-keyboard-response","366","387517","0.0-3.0-1.181","","","Update","n","false"
"null","<div style=""font-size:60px;"">+</div>","null","html-keyboard-response","367","388030","0.0-3.0-0.182","","fixation","","",""
"1628","Set1/045a.jpg","78","image-keyboard-response","368","389661","0.0-3.0-1.182","","","Repeat","n","true"
"null","<div style=""font-size:60px;"">+</div>","null","html-keyboard-response","369","390174","0.0-3.0-0.183","","fixation","","",""
"1625","Set1/183a.jpg","78","image-keyboard-response","370","391801","0.0-3.0-1.183","","","Set_2_Only","n","true"
"null","<div style=""font-size:60px;"">+</div>","null","html-keyboard-response","371","392311","0.0-3.0-0.184","","fixation","","",""
"1072","Set1/053a.jpg","79","image-keyboard-response","372","393385","0.0-3.0-1.184","","","Repeat","n","false"
"null","<div style=""font-size:60px;"">+</div>","null","html-keyboard-response","373","393900","0.0-3.0-0.185","","fixation","","",""
"1290","Set1/182a.jpg","78","image-keyboard-response","374","395193","0.0-3.0-1.185","","","Set_2_Only","n","true"
"null","<div style=""font-size:60px;"">+</div>","null","html-keyboard-response","375","395705","0.0-3.0-0.186","","fixation","","",""
"1394","Set1/124b.jpg","78","image-keyboard-response","376","397104","0.0-3.0-1.186","","","Update","n","true"
"null","<div style=""font-size:60px;"">+</div>","null","html-keyboard-response","377","397615","0.0-3.0-0.187","","fixation","","",""
"2682","Set1/155b.jpg","78","image-keyboard-response","378","400299","0.0-3.0-1.187","","","Update","n","true"
"null","<div style=""font-size:60px;"">+</div>","null","html-keyboard-response","379","400815","0.0-3.0-0.188","","fixation","","",""
"2420","Set1/104b.jpg","79","image-keyboard-response","380","403239","0.0-3.0-1.188","","","Update","o","true"
"null","<div style=""font-size:60px;"">+</div>","null","html-keyboard-response","381","403761","0.0-3.0-0.189","","fixation","","",""
"null","Set1/052a.jpg","null","image-keyboard-response","382","413789","0.0-3.0-1.189","","","Repeat","n","false"
"null","<div style=""font-size:60px;"">+</div>","null","html-keyboard-response","383","414306","0.0-3.0-0.190","","fixation","","",""
"804","Set1/158b.jpg","79","image-keyboard-response","384","415112","0.0-3.0-1.190","","","Update","o","true"
"null","<div style=""font-size:60px;"">+</div>","null","html-keyboard-response","385","415624","0.0-3.0-0.191","","fixation","","",""
"919","Set1/184a.jpg","78","image-keyboard-response","386","416548","0.0-3.0-1.191","","","Set_2_Only","n","true"
"null","<div style=""font-size:60px;"">+</div>","null","html-keyboard-response","387","417060","0.0-3.0-0.192","","fixation","","",""
"693","Set1/052a.jpg","79","image-keyboard-response","388","417754","0.0-3.0-1.192","","","Repeat","o","true"
"null","<div style=""font-size:60px;"">+</div>","null","html-keyboard-response","389","418264","0.0-3.0-0.193","","fixation","","",""
"1118","Set1/192a.jpg","78","image-keyboard-response","390","419385","0.0-3.0-1.193","","","Set_2_Only","n","true"
"null","<div style=""font-size:60px;"">+</div>","null","html-keyboard-response","391","419905","0.0-3.0-0.194","","fixation","","",""
"748","Set1/155b.jpg","79","image-keyboard-response","392","420655","0.0-3.0-1.194","","","Update","o","true"
"null","<div style=""font-size:60px;"">+</div>","null","html-keyboard-response","393","421158","0.0-3.0-0.195","","fixation","","",""
"668","Set1/070a.jpg","79","image-keyboard-response","394","421826","0.0-3.0-1.195","","","Repeat","o","true"
"null","<div style=""font-size:60px;"">+</div>","null","html-keyboard-response","395","422341","0.0-3.0-0.196","","fixation","","",""
"1183","Set1/048a.jpg","79","image-keyboard-response","396","423527","0.0-3.0-1.196","","","Repeat","n","false"
"null","<div style=""font-size:60px;"">+</div>","null","html-keyboard-response","397","424049","0.0-3.0-0.197","","fixation","","",""
"1411","Set1/122b.jpg","79","image-keyboard-response","398","425464","0.0-3.0-1.197","","","Update","n","false"
"null","<div style=""font-size:60px;"">+</div>","null","html-keyboard-response","399","425986","0.0-3.0-0.198","","fixation","","",""
"1020","Set1/156b.jpg","79","image-keyboard-response","400","427009","0.0-3.0-1.198","","","Update","n","false"
"null","<div style=""font-size:60px;"">+</div>","null","html-keyboard-response","401","427527","0.0-3.0-0.199","","fixation","","",""
"1103","Set1/097b.jpg","79","image-keyboard-response","402","428634","0.0-3.0-1.199","","","Update","n","false"
"null","<div style=""font-size:60px;"">+</div>","null","html-keyboard-response","403","429163","0.0-3.0-0.200","","fixation","","",""
"1090","Set1/118b.jpg","79","image-keyboard-response","404","430257","0.0-3.0-1.200","","","Update","n","false"
"null","<div style=""font-size:60px;"">+</div>","null","html-keyboard-response","405","430773","0.0-3.0-0.201","","fixation","","",""
"998","Set1/183a.jpg","79","image-keyboard-response","406","431771","0.0-3.0-1.201","","","Set_2_Only","o","true"
"null","<div style=""font-size:60px;"">+</div>","null","html-keyboard-response","407","432283","0.0-3.0-0.202","","fixation","","",""
"949","Set1/107b.jpg","79","image-keyboard-response","408","433235","0.0-3.0-1.202","","","Update","n","false"
"null","<div style=""font-size:60px;"">+</div>","null","html-keyboard-response","409","433757","0.0-3.0-0.203","","fixation","","",""
"731","Set1/048a.jpg","79","image-keyboard-response","410","434490","0.0-3.0-1.203","","","Repeat","o","true"
"null","<div style=""font-size:60px;"">+</div>","null","html-keyboard-response","411","435011","0.0-3.0-0.204","","fixation","","",""
"640","Set1/116b.jpg","79","image-keyboard-response","412","435655","0.0-3.0-1.204","","","Update","o","true"
"null","<div style=""font-size:60px;"">+</div>","null","html-keyboard-response","413","436183","0.0-3.0-0.205","","fixation","","",""
"1115","Set1/174a.jpg","78","image-keyboard-response","414","437299","0.0-3.0-1.205","","","Set_2_Only","n","true"
"null","<div style=""font-size:60px;"">+</div>","null","html-keyboard-response","415","437819","0.0-3.0-0.206","","fixation","","",""
"1190","Set1/190a.jpg","78","image-keyboard-response","416","439011","0.0-3.0-1.206","","","Set_2_Only","n","true"
"null","<div style=""font-size:60px;"">+</div>","null","html-keyboard-response","417","439525","0.0-3.0-0.207","","fixation","","",""
"1111","Set1/056a.jpg","79","image-keyboard-response","418","440638","0.0-3.0-1.207","","","Repeat","o","true"
"null","<div style=""font-size:60px;"">+</div>","null","html-keyboard-response","419","441146","0.0-3.0-0.208","","fixation","","",""
"1696","Set1/085a.jpg","79","image-keyboard-response","420","442845","0.0-3.0-1.208","","","Repeat","n","false"
"null","<div style=""font-size:60px;"">+</div>","null","html-keyboard-response","421","443366","0.0-3.0-0.209","","fixation","","",""
"948","Set1/182a.jpg","79","image-keyboard-response","422","444315","0.0-3.0-1.209","","","Set_2_Only","o","true"
"null","<div style=""font-size:60px;"">+</div>","null","html-keyboard-response","423","444826","0.0-3.0-0.210","","fixation","","",""
"936","Set1/163a.jpg","78","image-keyboard-response","424","445766","0.0-3.0-1.210","","","Set_2_Only","n","true"
"null","<div style=""font-size:60px;"">+</div>","null","html-keyboard-response","425","446283","0.0-3.0-0.211","","fixation","","",""
"1232","Set1/189a.jpg","78","image-keyboard-response","426","447517","0.0-3.0-1.211","","","Set_2_Only","n","true"
"null","<div style=""font-size:60px;"">+</div>","null","html-keyboard-response","427","448033","0.0-3.0-0.212","","fixation","","",""
"817","Set1/097b.jpg","79","image-keyboard-response","428","448854","0.0-3.0-1.212","","","Update","o","true"
"null","<div style=""font-size:60px;"">+</div>","null","html-keyboard-response","429","449390","0.0-3.0-0.213","","fixation","","",""
"1365","Set1/113b.jpg","79","image-keyboard-response","430","450759","0.0-3.0-1.213","","","Update","o","true"
"null","<div style=""font-size:60px;"">+</div>","null","html-keyboard-response","431","451274","0.0-3.0-0.214","","fixation","","",""
"803","Set1/174a.jpg","79","image-keyboard-response","432","452081","0.0-3.0-1.214","","","Set_2_Only","o","true"
"null","<div style=""font-size:60px;"">+</div>","null","html-keyboard-response","433","452599","0.0-3.0-0.215","","fixation","","",""
"1010","Set1/115b.jpg","79","image-keyboard-response","434","453613","0.0-3.0-1.215","","","Update","n","false"
"null","<div style=""font-size:60px;"">+</div>","null","html-keyboard-response","435","454137","0.0-3.0-0.216","","fixation","","",""
"973","Set1/124b.jpg","79","image-keyboard-response","436","455112","0.0-3.0-1.216","","","Update","o","true"
"null","<div style=""font-size:60px;"">+</div>","null","html-keyboard-response","437","455624","0.0-3.0-0.217","","fixation","","",""
"1141","Set1/186a.jpg","78","image-keyboard-response","438","456770","0.0-3.0-1.217","","","Set_2_Only","n","true"
"null","<div style=""font-size:60px;"">+</div>","null","html-keyboard-response","439","457292","0.0-3.0-0.218","","fixation","","",""
"1093","Set1/169a.jpg","78","image-keyboard-response","440","458388","0.0-3.0-1.218","","","Set_2_Only","n","true"
"null","<div style=""font-size:60px;"">+</div>","null","html-keyboard-response","441","458917","0.0-3.0-0.219","","fixation","","",""
"791","Set1/192a.jpg","79","image-keyboard-response","442","459712","0.0-3.0-1.219","","","Set_2_Only","o","true"
"null","<div style=""font-size:60px;"">+</div>","null","html-keyboard-response","443","460237","0.0-3.0-0.220","","fixation","","",""
"766","Set1/163a.jpg","79","image-keyboard-response","444","461007","0.0-3.0-1.220","","","Set_2_Only","o","true"
"null","<div style=""font-size:60px;"">+</div>","null","html-keyboard-response","445","461525","0.0-3.0-0.221","","fixation","","",""
"805","Set1/118b.jpg","79","image-keyboard-response","446","462332","0.0-3.0-1.221","","","Update","o","true"
"null","<div style=""font-size:60px;"">+</div>","null","html-keyboard-response","447","462844","0.0-3.0-0.222","","fixation","","",""
"775","Set1/107b.jpg","79","image-keyboard-response","448","463622","0.0-3.0-1.222","","","Update","o","true"
"null","<div style=""font-size:60px;"">+</div>","null","html-keyboard-response","449","464148","0.0-3.0-0.223","","fixation","","",""
"754","Set1/062a.jpg","79","image-keyboard-response","450","464905","0.0-3.0-1.223","","","Repeat","n","false"
"null","<div style=""font-size:60px;"">+</div>","null","html-keyboard-response","451","465413","0.0-3.0-0.224","","fixation","","",""
"613","Set1/156b.jpg","79","image-keyboard-response","452","466028","0.0-3.0-1.224","","","Update","o","true"
"null","<div style=""font-size:60px;"">+</div>","null","html-keyboard-response","453","466555","0.0-3.0-0.225","","fixation","","",""
"856","Set1/186a.jpg","79","image-keyboard-response","454","467413","0.0-3.0-1.225","","","Set_2_Only","o","true"
"null","<div style=""font-size:60px;"">+</div>","null","html-keyboard-response","455","467942","0.0-3.0-0.226","","fixation","","",""
"735","Set1/045a.jpg","79","image-keyboard-response","456","468682","0.0-3.0-1.226","","","Repeat","o","true"
"null","<div style=""font-size:60px;"">+</div>","null","html-keyboard-response","457","469193","0.0-3.0-0.227","","fixation","","",""
"700","Set1/057a.jpg","79","image-keyboard-response","458","469895","0.0-3.0-1.227","","","Repeat","o","true"
"null","<div style=""font-size:60px;"">+</div>","null","html-keyboard-response","459","470409","0.0-3.0-0.228","","fixation","","",""
"954","Set1/184a.jpg","79","image-keyboard-response","460","471367","0.0-3.0-1.228","","","Set_2_Only","o","true"
"null","<div style=""font-size:60px;"">+</div>","null","html-keyboard-response","461","471884","0.0-3.0-0.229","","fixation","","",""
"718","Set1/165a.jpg","79","image-keyboard-response","462","472606","0.0-3.0-1.229","","","Set_2_Only","o","true"
"null","<div style=""font-size:60px;"">+</div>","null","html-keyboard-response","463","473119","0.0-3.0-0.230","","fixation","","",""
"808","Set1/062a.jpg","79","image-keyboard-response","464","473931","0.0-3.0-1.230","","","Repeat","o","true"
"null","<div style=""font-size:60px;"">+</div>","null","html-keyboard-response","465","474439","0.0-3.0-0.231","","fixation","","",""
"628","Set1/152b.jpg","79","image-keyboard-response","466","475069","0.0-3.0-1.231","","","Update","o","true"
"null","<div style=""font-size:60px;"">+</div>","null","html-keyboard-response","467","475594","0.0-3.0-0.232","","fixation","","",""
"638","Set1/053a.jpg","79","image-keyboard-response","468","476235","0.0-3.0-1.232","","","Repeat","o","true"
"null","<div style=""font-size:60px;"">+</div>","null","html-keyboard-response","469","476743","0.0-3.0-0.233","","fixation","","",""
"753","Set1/190a.jpg","79","image-keyboard-response","470","477497","0.0-3.0-1.233","","","Set_2_Only","o","true"
"null","<div style=""font-size:60px;"">+</div>","null","html-keyboard-response","471","478016","0.0-3.0-0.234","","fixation","","",""
"716","Set1/082a.jpg","79","image-keyboard-response","472","478735","0.0-3.0-1.234","","","Repeat","o","true"
"null","<div style=""font-size:60px;"">+</div>","null","html-keyboard-response","473","479251","0.0-3.0-0.235","","fixation","","",""
"643","Set1/085a.jpg","79","image-keyboard-response","474","479896","0.0-3.0-1.235","","","Repeat","o","true"
"null","<div style=""font-size:60px;"">+</div>","null","html-keyboard-response","475","480408","0.0-3.0-0.236","","fixation","","",""
"967","Set1/169a.jpg","79","image-keyboard-response","476","481376","0.0-3.0-1.236","","","Set_2_Only","o","true"
"null","<div style=""font-size:60px;"">+</div>","null","html-keyboard-response","477","481896","0.0-3.0-0.237","","fixation","","",""
"687","Set1/122b.jpg","79","image-keyboard-response","478","482587","0.0-3.0-1.237","","","Update","o","true"
"null","<div style=""font-size:60px;"">+</div>","null","html-keyboard-response","479","483111","0.0-3.0-0.238","","fixation","","",""
"645","Set1/189a.jpg","79","image-keyboard-response","480","483759","0.0-3.0-1.238","","","Set_2_Only","o","true"
"null","<div style=""font-size:60px;"">+</div>","null","html-keyboard-response","481","484265","0.0-3.0-0.239","","fixation","","",""
"610","Set1/115b.jpg","79","image-keyboard-response","482","484879","0.0-3.0-1.239","","","Update","o","true"
"null","<div style=""font-size:60px;"">+</div>","null","html-keyboard-response","483","485408","0.0-3.0-0.240","","fixation","","",""
"796","Set1/081a.jpg","79","image-keyboard-response","484","486207","0.0-3.0-1.240","","","Repeat","n","false"
"null","<div style=""font-size:60px;"">+</div>","null","html-keyboard-response","485","486733","0.0-3.0-0.241","","fixation","","",""
"1046","Set1/166a.jpg","78","image-keyboard-response","486","487782","0.0-3.0-1.241","","","Set_2_Only","n","true"
"null","<div style=""font-size:60px;"">+</div>","null","html-keyboard-response","487","488299","0.0-3.0-0.242","","fixation","","",""
"1376","Set1/111b.jpg","78","image-keyboard-response","488","489678","0.0-3.0-1.242","","","Update","n","true"
"null","<div style=""font-size:60px;"">+</div>","null","html-keyboard-response","489","490190","0.0-3.0-0.243","","fixation","","",""
"1301","Set1/063a.jpg","79","image-keyboard-response","490","491494","0.0-3.0-1.243","","","Repeat","n","false"
"null","<div style=""font-size:60px;"">+</div>","null","html-keyboard-response","491","492005","0.0-3.0-0.244","","fixation","","",""
"1249","Set1/127b.jpg","79","image-keyboard-response","492","493258","0.0-3.0-1.244","","","Update","n","false"
"null","<div style=""font-size:60px;"">+</div>","null","html-keyboard-response","493","493770","0.0-3.0-0.245","","fixation","","",""
"1009","Set1/077a.jpg","79","image-keyboard-response","494","494784","0.0-3.0-1.245","","","Repeat","n","false"
"null","<div style=""font-size:60px;"">+</div>","null","html-keyboard-response","495","495292","0.0-3.0-0.246","","fixation","","",""
"1538","Set1/117b.jpg","78","image-keyboard-response","496","496835","0.0-3.0-1.246","","","Update","n","true"
"null","<div style=""font-size:60px;"">+</div>","null","html-keyboard-response","497","497348","0.0-3.0-0.247","","fixation","","",""
"1155","Set1/110b.jpg","79","image-keyboard-response","498","498506","0.0-3.0-1.247","","","Update","n","false"
"null","<div style=""font-size:60px;"">+</div>","null","html-keyboard-response","499","499016","0.0-3.0-0.248","","fixation","","",""
"1278","Set1/137b.jpg","79","image-keyboard-response","500","500297","0.0-3.0-1.248","","","Update","n","false"
"null","<div style=""font-size:60px;"">+</div>","null","html-keyboard-response","501","500810","0.0-3.0-0.249","","fixation","","",""
"1165","Set1/146b.jpg","78","image-keyboard-response","502","501981","0.0-3.0-1.249","","","Update","n","true"
"null","<div style=""font-size:60px;"">+</div>","null","html-keyboard-response","503","502492","0.0-3.0-0.250","","fixation","","",""
"1160","Set1/164a.jpg","78","image-keyboard-response","504","503657","0.0-3.0-1.250","","","Set_2_Only","n","true"
"null","<div style=""font-size:60px;"">+</div>","null","html-keyboard-response","505","504181","0.0-3.0-0.251","","fixation","","",""
"1051","Set1/132b.jpg","79","image-keyboard-response","506","505235","0.0-3.0-1.251","","","Update","n","false"
"null","<div style=""font-size:60px;"">+</div>","null","html-keyboard-response","507","505756","0.0-3.0-0.252","","fixation","","",""
"null","Set1/136b.jpg","null","image-keyboard-response","508","515782","0.0-3.0-1.252","","","Update","n","false"
"null","<div style=""font-size:60px;"">+</div>","null","html-keyboard-response","509","516299","0.0-3.0-0.253","","fixation","","",""
"1155","Set1/072a.jpg","79","image-keyboard-response","510","517457","0.0-3.0-1.253","","","Repeat","n","false"
"null","<div style=""font-size:60px;"">+</div>","null","html-keyboard-response","511","517972","0.0-3.0-0.254","","fixation","","",""
"1081","Set1/049a.jpg","78","image-keyboard-response","512","519056","0.0-3.0-1.254","","","Repeat","n","true"
"null","<div style=""font-size:60px;"">+</div>","null","html-keyboard-response","513","519576","0.0-3.0-0.255","","fixation","","",""
"1534","Set1/133b.jpg","78","image-keyboard-response","514","521116","0.0-3.0-1.255","","","Update","n","true"
"null","<div style=""font-size:60px;"">+</div>","null","html-keyboard-response","515","521629","0.0-3.0-0.256","","fixation","","",""
"914","Set1/109b.jpg","79","image-keyboard-response","516","522547","0.0-3.0-1.256","","","Update","n","false"
"null","<div style=""font-size:60px;"">+</div>","null","html-keyboard-response","517","523065","0.0-3.0-0.257","","fixation","","",""
"1108","Set1/121b.jpg","79","image-keyboard-response","518","524177","0.0-3.0-1.257","","","Update","n","false"
"null","<div style=""font-size:60px;"">+</div>","null","html-keyboard-response","519","524682","0.0-3.0-0.258","","fixation","","",""
"716","Set1/111b.jpg","79","image-keyboard-response","520","525401","0.0-3.0-1.258","","","Update","o","true"
"null","<div style=""font-size:60px;"">+</div>","null","html-keyboard-response","521","525910","0.0-3.0-0.259","","fixation","","",""
"1274","Set1/129b.jpg","78","image-keyboard-response","522","527188","0.0-3.0-1.259","","","Update","n","true"
"null","<div style=""font-size:60px;"">+</div>","null","html-keyboard-response","523","527691","0.0-3.0-0.260","","fixation","","",""
"1262","Set1/088a.jpg","78","image-keyboard-response","524","528956","0.0-3.0-1.260","","","Repeat","n","true"
"null","<div style=""font-size:60px;"">+</div>","null","html-keyboard-response","525","529476","0.0-3.0-0.261","","fixation","","",""
"1132","Set1/136b.jpg","79","image-keyboard-response","526","530612","0.0-3.0-1.261","","","Update","o","true"
"null","<div style=""font-size:60px;"">+</div>","null","html-keyboard-response","527","531128","0.0-3.0-0.262","","fixation","","",""
"749","Set1/088a.jpg","78","image-keyboard-response","528","531877","0.0-3.0-1.262","","","Repeat","o","false"
"null","<div style=""font-size:60px;"">+</div>","null","html-keyboard-response","529","532395","0.0-3.0-0.263","","fixation","","",""
"1032","Set1/125b.jpg","78","image-keyboard-response","530","533429","0.0-3.0-1.263","","","Update","n","true"
"null","<div style=""font-size:60px;"">+</div>","null","html-keyboard-response","531","533949","0.0-3.0-0.264","","fixation","","",""
"821","Set1/054a.jpg","79","image-keyboard-response","532","534775","0.0-3.0-1.264","","","Repeat","n","false"
"null","<div style=""font-size:60px;"">+</div>","null","html-keyboard-response","533","535292","0.0-3.0-0.265","","fixation","","",""
"1146","Set1/099b.jpg","79","image-keyboard-response","534","536441","0.0-3.0-1.265","","","Update","n","false"
"null","<div style=""font-size:60px;"">+</div>","null","html-keyboard-response","535","536958","0.0-3.0-0.266","","fixation","","",""
"779","Set1/166a.jpg","79","image-keyboard-response","536","537740","0.0-3.0-1.266","","","Set_2_Only","o","true"
"null","<div style=""font-size:60px;"">+</div>","null","html-keyboard-response","537","538262","0.0-3.0-0.267","","fixation","","",""
"914","Set1/093a.jpg","79","image-keyboard-response","538","539181","0.0-3.0-1.267","","","Repeat","n","false"
"null","<div style=""font-size:60px;"">+</div>","null","html-keyboard-response","539","539703","0.0-3.0-0.268","","fixation","","",""
"1162","Set1/060a.jpg","78","image-keyboard-response","540","540870","0.0-3.0-1.268","","","Repeat","n","true"
"null","<div style=""font-size:60px;"">+</div>","null","html-keyboard-response","541","541387","0.0-3.0-0.269","","fixation","","",""
"771","Set1/110b.jpg","79","image-keyboard-response","542","542163","0.0-3.0-1.269","","","Update","o","true"
"null","<div style=""font-size:60px;"">+</div>","null","html-keyboard-response","543","542689","0.0-3.0-0.270","","fixation","","",""
"759","Set1/093a.jpg","79","image-keyboard-response","544","543453","0.0-3.0-1.270","","","Repeat","o","true"
"null","<div style=""font-size:60px;"">+</div>","null","html-keyboard-response","545","543972","0.0-3.0-0.271","","fixation","","",""
"1012","Set1/180a.jpg","78","image-keyboard-response","546","544989","0.0-3.0-1.271","","","Set_2_Only","n","true"
"null","<div style=""font-size:60px;"">+</div>","null","html-keyboard-response","547","545515","0.0-3.0-0.272","","fixation","","",""
"1243","Set1/120b.jpg","78","image-keyboard-response","548","546761","0.0-3.0-1.272","","","Update","n","true"
"null","<div style=""font-size:60px;"">+</div>","null","html-keyboard-response","549","547272","0.0-3.0-0.273","","fixation","","",""
"1158","Set1/178a.jpg","78","image-keyboard-response","550","548432","0.0-3.0-1.273","","","Set_2_Only","n","true"
"null","<div style=""font-size:60px;"">+</div>","null","html-keyboard-response","551","548940","0.0-3.0-0.274","","fixation","","",""
"905","Set1/079a.jpg","79","image-keyboard-response","552","549849","0.0-3.0-1.274","","","Repeat","n","false"
"null","<div style=""font-size:60px;"">+</div>","null","html-keyboard-response","553","550376","0.0-3.0-0.275","","fixation","","",""
"1288","Set1/151b.jpg","78","image-keyboard-response","554","551668","0.0-3.0-1.275","","","Update","n","true"
"null","<div style=""font-size:60px;"">+</div>","null","html-keyboard-response","555","552197","0.0-3.0-0.276","","fixation","","",""
"1102","Set1/181a.jpg","78","image-keyboard-response","556","553302","0.0-3.0-1.276","","","Set_2_Only","n","true"
"null","<div style=""font-size:60px;"">+</div>","null","html-keyboard-response","557","553817","0.0-3.0-0.277","","fixation","","",""
"761","Set1/099b.jpg","79","image-keyboard-response","558","554582","0.0-3.0-1.277","","","Update","o","true"
"null","<div style=""font-size:60px;"">+</div>","null","html-keyboard-response","559","555088","0.0-3.0-0.278","","fixation","","",""
"1447","Set1/102b.jpg","78","image-keyboard-response","560","556541","0.0-3.0-1.278","","","Update","n","true"
"null","<div style=""font-size:60px;"">+</div>","null","html-keyboard-response","561","557063","0.0-3.0-0.279","","fixation","","",""
"1483","Set1/167a.jpg","78","image-keyboard-response","562","558550","0.0-3.0-1.279","","","Set_2_Only","n","true"
"null","<div style=""font-size:60px;"">+</div>","null","html-keyboard-response","563","559070","0.0-3.0-0.280","","fixation","","",""
"923","Set1/102b.jpg","79","image-keyboard-response","564","559993","0.0-3.0-1.280","","","Update","o","true"
"null","<div style=""font-size:60px;"">+</div>","null","html-keyboard-response","565","560520","0.0-3.0-0.281","","fixation","","",""
"1353","Set1/092a.jpg","79","image-keyboard-response","566","561875","0.0-3.0-1.281","","","Repeat","n","false"
"null","<div style=""font-size:60px;"">+</div>","null","html-keyboard-response","567","562394","0.0-3.0-0.282","","fixation","","",""
"629","Set1/081a.jpg","79","image-keyboard-response","568","563026","0.0-3.0-1.282","","","Repeat","o","true"
"null","<div style=""font-size:60px;"">+</div>","null","html-keyboard-response","569","563543","0.0-3.0-0.283","","fixation","","",""
"775","Set1/120b.jpg","79","image-keyboard-response","570","564323","0.0-3.0-1.283","","","Update","o","true"
"null","<div style=""font-size:60px;"">+</div>","null","html-keyboard-response","571","564847","0.0-3.0-0.284","","fixation","","",""
"968","Set1/076a.jpg","79","image-keyboard-response","572","565817","0.0-3.0-1.284","","","Repeat","n","false"
"null","<div style=""font-size:60px;"">+</div>","null","html-keyboard-response","573","566320","0.0-3.0-0.285","","fixation","","",""
"993","Set1/033a.jpg","78","image-keyboard-response","574","567316","0.0-3.0-1.285","","","Repeat","n","true"
"null","<div style=""font-size:60px;"">+</div>","null","html-keyboard-response","575","567828","0.0-3.0-0.286","","fixation","","",""
"853","Set1/125b.jpg","79","image-keyboard-response","576","568685","0.0-3.0-1.286","","","Update","o","true"
"null","<div style=""font-size:60px;"">+</div>","null","html-keyboard-response","577","569200","0.0-3.0-0.287","","fixation","","",""
"636","Set1/127b.jpg","79","image-keyboard-response","578","569842","0.0-3.0-1.287","","","Update","o","true"
"null","<div style=""font-size:60px;"">+</div>","null","html-keyboard-response","579","570355","0.0-3.0-0.288","","fixation","","",""
"666","Set1/092a.jpg","79","image-keyboard-response","580","571023","0.0-3.0-1.288","","","Repeat","o","true"
"null","<div style=""font-size:60px;"">+</div>","null","html-keyboard-response","581","571536","0.0-3.0-0.289","","fixation","","",""
"865","Set1/181a.jpg","79","image-keyboard-response","582","572406","0.0-3.0-1.289","","","Set_2_Only","o","true"
"null","<div style=""font-size:60px;"">+</div>","null","html-keyboard-response","583","572926","0.0-3.0-0.290","","fixation","","",""
"1295","Set1/086a.jpg","78","image-keyboard-response","584","574227","0.0-3.0-1.290","","","Repeat","n","true"
"null","<div style=""font-size:60px;"">+</div>","null","html-keyboard-response","585","574731","0.0-3.0-0.291","","fixation","","",""
"649","Set1/109b.jpg","79","image-keyboard-response","586","575385","0.0-3.0-1.291","","","Update","o","true"
"null","<div style=""font-size:60px;"">+</div>","null","html-keyboard-response","587","575902","0.0-3.0-0.292","","fixation","","",""
"910","Set1/167a.jpg","79","image-keyboard-response","588","576817","0.0-3.0-1.292","","","Set_2_Only","o","true"
"null","<div style=""font-size:60px;"">+</div>","null","html-keyboard-response","589","577322","0.0-3.0-0.293","","fixation","","",""
"1164","Set1/129b.jpg","79","image-keyboard-response","590","578489","0.0-3.0-1.293","","","Update","o","true"
"null","<div style=""font-size:60px;"">+</div>","null","html-keyboard-response","591","578995","0.0-3.0-0.294","","fixation","","",""
"635","Set1/180a.jpg","79","image-keyboard-response","592","579633","0.0-3.0-1.294","","","Set_2_Only","o","true"
"null","<div style=""font-size:60px;"">+</div>","null","html-keyboard-response","593","580144","0.0-3.0-0.295","","fixation","","",""
"559","Set1/121b.jpg","79","image-keyboard-response","594","580708","0.0-3.0-1.295","","","Update","o","true"
"null","<div style=""font-size:60px;"">+</div>","null","html-keyboard-response","595","581232","0.0-3.0-0.296","","fixation","","",""
"1042","Set1/178a.jpg","79","image-keyboard-response","596","582276","0.0-3.0-1.296","","","Set_2_Only","o","true"
"null","<div style=""font-size:60px;"">+</div>","null","html-keyboard-response","597","582793","0.0-3.0-0.297","","fixation","","",""
"998","Set1/094a.jpg","79","image-keyboard-response","598","583794","0.0-3.0-1.297","","","Repeat","n","false"
"null","<div style=""font-size:60px;"">+</div>","null","html-keyboard-response","599","584293","0.0-3.0-0.298","","fixation","","",""
"715","Set1/137b.jpg","79","image-keyboard-response","600","585012","0.0-3.0-1.298","","","Update","o","true"
"null","<div style=""font-size:60px;"">+</div>","null","html-keyboard-response","601","585527","0.0-3.0-0.299","","fixation","","",""
"671","Set1/060a.jpg","79","image-keyboard-response","602","586202","0.0-3.0-1.299","","","Repeat","o","true"
"null","<div style=""font-size:60px;"">+</div>","null","html-keyboard-response","603","586715","0.0-3.0-0.300","","fixation","","",""
"572","Set1/133b.jpg","79","image-keyboard-response","604","587295","0.0-3.0-1.300","","","Update","o","true"
"null","<div style=""font-size:60px;"">+</div>","null","html-keyboard-response","605","587819","0.0-3.0-0.301","","fixation","","",""
"818","Set1/164a.jpg","79","image-keyboard-response","606","588640","0.0-3.0-1.301","","","Set_2_Only","o","true"
"null","<div style=""font-size:60px;"">+</div>","null","html-keyboard-response","607","589155","0.0-3.0-0.302","","fixation","","",""
"635","Set1/054a.jpg","79","image-keyboard-response","608","589791","0.0-3.0-1.302","","","Repeat","o","true"
"null","<div style=""font-size:60px;"">+</div>","null","html-keyboard-response","609","590309","0.0-3.0-0.303","","fixation","","",""
"757","Set1/117b.jpg","79","image-keyboard-response","610","591072","0.0-3.0-1.303","","","Update","o","true"
"null","<div style=""font-size:60px;"">+</div>","null","html-keyboard-response","611","591592","0.0-3.0-0.304","","fixation","","",""
"724","Set1/049a.jpg","79","image-keyboard-response","612","592320","0.0-3.0-1.304","","","Repeat","o","true"
"null","<div style=""font-size:60px;"">+</div>","null","html-keyboard-response","613","592833","0.0-3.0-0.305","","fixation","","",""
"681","Set1/132b.jpg","79","image-keyboard-response","614","593518","0.0-3.0-1.305","","","Update","o","true"
"null","<div style=""font-size:60px;"">+</div>","null","html-keyboard-response","615","594035","0.0-3.0-0.306","","fixation","","",""
"562","Set1/151b.jpg","79","image-keyboard-response","616","594601","0.0-3.0-1.306","","","Update","o","true"
"null","<div style=""font-size:60px;"">+</div>","null","html-keyboard-response","617","595123","0.0-3.0-0.307","","fixation","","",""
"712","Set1/086a.jpg","79","image-keyboard-response","618","595837","0.0-3.0-1.307","","","Repeat","o","true"
"null","<div style=""font-size:60px;"">+</div>","null","html-keyboard-response","619","596341","0.0-3.0-0.308","","fixation","","",""
"1341","Set1/160b.jpg","79","image-keyboard-response","620","597687","0.0-3.0-1.308","","","Update","n","false"
"null","<div style=""font-size:60px;"">+</div>","null","html-keyboard-response","621","598209","0.0-3.0-0.309","","fixation","","",""
"676","Set1/094a.jpg","79","image-keyboard-response","622","598889","0.0-3.0-1.309","","","Repeat","o","true"
"null","<div style=""font-size:60px;"">+</div>","null","html-keyboard-response","623","599413","0.0-3.0-0.310","","fixation","","",""
"828","Set1/146b.jpg","79","image-keyboard-response","624","600244","0.0-3.0-1.310","","","Update","o","true"
"null","<div style=""font-size:60px;"">+</div>","null","html-keyboard-response","625","600761","0.0-3.0-0.311","","fixation","","",""
"716","Set1/160b.jpg","79","image-keyboard-response","626","601480","0.0-3.0-1.311","","","Update","o","true"
"null","<div style=""font-size:60px;"">+</div>","null","html-keyboard-response","627","602009","0.0-3.0-0.312","","fixation","","",""
"807","Set1/072a.jpg","79","image-keyboard-response","628","602819","0.0-3.0-1.312","","","Repeat","o","true"
"null","<div style=""font-size:60px;"">+</div>","null","html-keyboard-response","629","603327","0.0-3.0-0.313","","fixation","","",""
"612","Set1/076a.jpg","79","image-keyboard-response","630","603945","0.0-3.0-1.313","","","Repeat","o","true"
"null","<div style=""font-size:60px;"">+</div>","null","html-keyboard-response","631","604452","0.0-3.0-0.314","","fixation","","",""
"626","Set1/079a.jpg","79","image-keyboard-response","632","605083","0.0-3.0-1.314","","","Repeat","o","true"
"null","<div style=""font-size:60px;"">+</div>","null","html-keyboard-response","633","605603","0.0-3.0-0.315","","fixation","","",""
"1013","Set1/033a.jpg","79","image-keyboard-response","634","606619","0.0-3.0-1.315","","","Repeat","o","true"
"null","<div style=""font-size:60px;"">+</div>","null","html-keyboard-response","635","607144","0.0-3.0-0.316","","fixation","","",""
"916","Set1/051a.jpg","79","image-keyboard-response","636","608065","0.0-3.0-1.316","","","Repeat","n","false"
"null","<div style=""font-size:60px;"">+</div>","null","html-keyboard-response","637","608589","0.0-3.0-0.317","","fixation","","",""
"631","Set1/077a.jpg","79","image-keyboard-response","638","609225","0.0-3.0-1.317","","","Repeat","o","true"
"null","<div style=""font-size:60px;"">+</div>","null","html-keyboard-response","639","609745","0.0-3.0-0.318","","fixation","","",""
"648","Set1/051a.jpg","79","image-keyboard-response","640","610395","0.0-3.0-1.318","","","Repeat","o","true"
"null","<div style=""font-size:60px;"">+</div>","null","html-keyboard-response","641","610917","0.0-3.0-0.319","","fixation","","",""
"659","Set1/063a.jpg","79","image-keyboard-response","642","611585","0.0-3.0-1.319","","","Repeat","o","true"
