"rt","stimulus","key_press","trial_type","trial_index","time_elapsed","internal_node_id","responses","test_part","stim_type","correct_response","correct"
"2887","Press any key to begin.","13","html-keyboard-response","0","2892","0.0-0.0","","","","",""
"9226","","","survey-text","1","12121","0.0-1.0","{""Q0"":""Set2128190"",""Q1"":""""}","","","",""
"8047","<p>In this experiment you will see a series of everyday objects presented one at a time at the center of the screen. Each image will be presented twice.</p><p>The first time you see the image, press the N key to indicat that it is a NEW image. The second time you see the image, press the O key to indicate that it is an OLD image.</p><p>Some of the images will be repeats from the first session of this task you did yesterday. I want you to treat those images as 'OLD' if you remember seeing them before. Some of the images will be very similar but not identical to an image that you have seen in the previous set. I want you to treat those images as 'NEW' the first time you see them and 'OLD' the second time.</p><div style='width: 700px;'></div><p>Press any key to begin.</p>","13","html-keyboard-response","2","20171","0.0-2.0","","","","",""
"null","<div style=""font-size:60px;"">+</div>","null","html-keyboard-response","3","22701","0.0-3.0-0.0","","fixation","","",""
"2312","Set1/037a.jpg","78","image-keyboard-response","4","25034","0.0-3.0-1.0","","","Repeat","n","true"
"null","<div style=""font-size:60px;"">+</div>","null","html-keyboard-response","5","25544","0.0-3.0-0.1","","fixation","","",""
"1182","Set1/095a.jpg","79","image-keyboard-response","6","26762","0.0-3.0-1.1","","","Repeat","n","false"
"null","<div style=""font-size:60px;"">+</div>","null","html-keyboard-response","7","27263","0.0-3.0-0.2","","fixation","","",""
"1522","Set1/080a.jpg","79","image-keyboard-response","8","28802","0.0-3.0-1.2","","","Repeat","n","false"
"null","<div style=""font-size:60px;"">+</div>","null","html-keyboard-response","9","29326","0.0-3.0-0.3","","fixation","","",""
"1050","Set1/142b.jpg","78","image-keyboard-response","10","30378","0.0-3.0-1.3","","","Update","n","true"
"null","<div style=""font-size:60px;"">+</div>","null","html-keyboard-response","11","30888","0.0-3.0-0.4","","fixation","","",""
"1550","Set1/179a.jpg","78","image-keyboard-response","12","32442","0.0-3.0-1.4","","","Set_2_Only","n","true"
"null","<div style=""font-size:60px;"">+</div>","null","html-keyboard-response","13","32951","0.0-3.0-0.5","","fixation","","",""
"847","Set1/039a.jpg","79","image-keyboard-response","14","33818","0.0-3.0-1.5","","","Repeat","n","false"
"null","<div style=""font-size:60px;"">+</div>","null","html-keyboard-response","15","34326","0.0-3.0-0.6","","fixation","","",""
"1217","Set1/172a.jpg","79","image-keyboard-response","16","35546","0.0-3.0-1.6","","","Set_2_Only","n","false"
"null","<div style=""font-size:60px;"">+</div>","null","html-keyboard-response","17","36061","0.0-3.0-0.7","","fixation","","",""
"1093","Set1/075a.jpg","79","image-keyboard-response","18","37170","0.0-3.0-1.7","","","Repeat","n","false"
"null","<div style=""font-size:60px;"">+</div>","null","html-keyboard-response","19","37686","0.0-3.0-0.8","","fixation","","",""
"1149","Set1/090a.jpg","79","image-keyboard-response","20","38850","0.0-3.0-1.8","","","Repeat","n","false"
"null","<div style=""font-size:60px;"">+</div>","null","html-keyboard-response","21","39373","0.0-3.0-0.9","","fixation","","",""
"2602","Set1/148b.jpg","79","image-keyboard-response","22","41978","0.0-3.0-1.9","","","Update","n","false"
"null","<div style=""font-size:60px;"">+</div>","null","html-keyboard-response","23","42498","0.0-3.0-0.10","","fixation","","",""
"1086","Set1/172a.jpg","79","image-keyboard-response","24","43586","0.0-3.0-1.10","","","Set_2_Only","o","true"
"null","<div style=""font-size:60px;"">+</div>","null","html-keyboard-response","25","44092","0.0-3.0-0.11","","fixation","","",""
"2415","Set1/035a.jpg","79","image-keyboard-response","26","46521","0.0-3.0-1.11","","","Repeat","n","false"
"null","<div style=""font-size:60px;"">+</div>","null","html-keyboard-response","27","47031","0.0-3.0-0.12","","fixation","","",""
"1009","Set1/170a.jpg","78","image-keyboard-response","28","48042","0.0-3.0-1.12","","","Set_2_Only","n","true"
"null","<div style=""font-size:60px;"">+</div>","null","html-keyboard-response","29","48546","0.0-3.0-0.13","","fixation","","",""
"1086","Set1/179a.jpg","79","image-keyboard-response","30","49634","0.0-3.0-1.13","","","Set_2_Only","o","true"
"null","<div style=""font-size:60px;"">+</div>","null","html-keyboard-response","31","50158","0.0-3.0-0.14","","fixation","","",""
"1537","Set1/153b.jpg","79","image-keyboard-response","32","51698","0.0-3.0-1.14","","","Update","n","false"
"null","<div style=""font-size:60px;"">+</div>","null","html-keyboard-response","33","52208","0.0-3.0-0.15","","fixation","","",""
"799","Set1/083a.jpg","79","image-keyboard-response","34","53025","0.0-3.0-1.15","","","Repeat","n","false"
"null","<div style=""font-size:60px;"">+</div>","null","html-keyboard-response","35","53530","0.0-3.0-0.16","","fixation","","",""
"1670","Set1/126b.jpg","78","image-keyboard-response","36","55203","0.0-3.0-1.16","","","Update","n","true"
"null","<div style=""font-size:60px;"">+</div>","null","html-keyboard-response","37","55718","0.0-3.0-0.17","","fixation","","",""
"1153","Set1/135b.jpg","79","image-keyboard-response","38","56873","0.0-3.0-1.17","","","Update","n","false"
"null","<div style=""font-size:60px;"">+</div>","null","html-keyboard-response","39","57391","0.0-3.0-0.18","","fixation","","",""
"1744","Set1/108b.jpg","79","image-keyboard-response","40","59137","0.0-3.0-1.18","","","Update","n","false"
"null","<div style=""font-size:60px;"">+</div>","null","html-keyboard-response","41","59641","0.0-3.0-0.19","","fixation","","",""
"1879","Set1/142b.jpg","79","image-keyboard-response","42","61522","0.0-3.0-1.19","","","Update","o","true"
"null","<div style=""font-size:60px;"">+</div>","null","html-keyboard-response","43","62031","0.0-3.0-0.20","","fixation","","",""
"920","Set1/138b.jpg","78","image-keyboard-response","44","62954","0.0-3.0-1.20","","","Update","n","true"
"null","<div style=""font-size:60px;"">+</div>","null","html-keyboard-response","45","63469","0.0-3.0-0.21","","fixation","","",""
"858","Set1/171a.jpg","78","image-keyboard-response","46","64329","0.0-3.0-1.21","","","Set_2_Only","n","true"
"null","<div style=""font-size:60px;"">+</div>","null","html-keyboard-response","47","64855","0.0-3.0-0.22","","fixation","","",""
"799","Set1/148b.jpg","79","image-keyboard-response","48","65657","0.0-3.0-1.22","","","Update","o","true"
"null","<div style=""font-size:60px;"">+</div>","null","html-keyboard-response","49","66174","0.0-3.0-0.23","","fixation","","",""
"729","Set1/083a.jpg","79","image-keyboard-response","50","66906","0.0-3.0-1.23","","","Repeat","o","true"
"null","<div style=""font-size:60px;"">+</div>","null","html-keyboard-response","51","67431","0.0-3.0-0.24","","fixation","","",""
"1137","Set1/141b.jpg","79","image-keyboard-response","52","68570","0.0-3.0-1.24","","","Update","n","false"
"null","<div style=""font-size:60px;"">+</div>","null","html-keyboard-response","53","69082","0.0-3.0-0.25","","fixation","","",""
"1725","Set1/123b.jpg","79","image-keyboard-response","54","70809","0.0-3.0-1.25","","","Update","n","false"
"null","<div style=""font-size:60px;"">+</div>","null","html-keyboard-response","55","71324","0.0-3.0-0.26","","fixation","","",""
"1067","Set1/145b.jpg","78","image-keyboard-response","56","72393","0.0-3.0-1.26","","","Update","n","true"
"null","<div style=""font-size:60px;"">+</div>","null","html-keyboard-response","57","72908","0.0-3.0-0.27","","fixation","","",""
"924","Set1/175a.jpg","78","image-keyboard-response","58","73833","0.0-3.0-1.27","","","Set_2_Only","n","true"
"null","<div style=""font-size:60px;"">+</div>","null","html-keyboard-response","59","74350","0.0-3.0-0.28","","fixation","","",""
"841","Set1/177a.jpg","78","image-keyboard-response","60","75193","0.0-3.0-1.28","","","Set_2_Only","n","true"
"null","<div style=""font-size:60px;"">+</div>","null","html-keyboard-response","61","75708","0.0-3.0-0.29","","fixation","","",""
"1483","Set1/119b.jpg","78","image-keyboard-response","62","77194","0.0-3.0-1.29","","","Update","n","true"
"null","<div style=""font-size:60px;"">+</div>","null","html-keyboard-response","63","77708","0.0-3.0-0.30","","fixation","","",""
"1059","Set1/177a.jpg","79","image-keyboard-response","64","78769","0.0-3.0-1.30","","","Set_2_Only","o","true"
"null","<div style=""font-size:60px;"">+</div>","null","html-keyboard-response","65","79274","0.0-3.0-0.31","","fixation","","",""
"1261","Set1/038a.jpg","79","image-keyboard-response","66","80545","0.0-3.0-1.31","","","Repeat","n","false"
"null","<div style=""font-size:60px;"">+</div>","null","html-keyboard-response","67","81053","0.0-3.0-0.32","","fixation","","",""
"746","Set1/035a.jpg","79","image-keyboard-response","68","81802","0.0-3.0-1.32","","","Repeat","o","true"
"null","<div style=""font-size:60px;"">+</div>","null","html-keyboard-response","69","82318","0.0-3.0-0.33","","fixation","","",""
"875","Set1/171a.jpg","79","image-keyboard-response","70","83194","0.0-3.0-1.33","","","Set_2_Only","o","true"
"null","<div style=""font-size:60px;"">+</div>","null","html-keyboard-response","71","83710","0.0-3.0-0.34","","fixation","","",""
"1137","Set1/157b.jpg","79","image-keyboard-response","72","84849","0.0-3.0-1.34","","","Update","n","false"
"null","<div style=""font-size:60px;"">+</div>","null","html-keyboard-response","73","85366","0.0-3.0-0.35","","fixation","","",""
"963","Set1/170a.jpg","79","image-keyboard-response","74","86329","0.0-3.0-1.35","","","Set_2_Only","o","true"
"null","<div style=""font-size:60px;"">+</div>","null","html-keyboard-response","75","86834","0.0-3.0-0.36","","fixation","","",""
"837","Set1/135b.jpg","79","image-keyboard-response","76","87674","0.0-3.0-1.36","","","Update","o","true"
"null","<div style=""font-size:60px;"">+</div>","null","html-keyboard-response","77","88179","0.0-3.0-0.37","","fixation","","",""
"859","Set1/090a.jpg","79","image-keyboard-response","78","89041","0.0-3.0-1.37","","","Repeat","o","true"
"null","<div style=""font-size:60px;"">+</div>","null","html-keyboard-response","79","89553","0.0-3.0-0.38","","fixation","","",""
"950","Set1/095a.jpg","79","image-keyboard-response","80","90506","0.0-3.0-1.38","","","Repeat","o","true"
"null","<div style=""font-size:60px;"">+</div>","null","html-keyboard-response","81","91006","0.0-3.0-0.39","","fixation","","",""
"775","Set1/108b.jpg","79","image-keyboard-response","82","91785","0.0-3.0-1.39","","","Update","o","true"
"null","<div style=""font-size:60px;"">+</div>","null","html-keyboard-response","83","92288","0.0-3.0-0.40","","fixation","","",""
"890","Set1/040a.jpg","79","image-keyboard-response","84","93201","0.0-3.0-1.40","","","Repeat","n","false"
"null","<div style=""font-size:60px;"">+</div>","null","html-keyboard-response","85","93710","0.0-3.0-0.41","","fixation","","",""
"871","Set1/058a.jpg","79","image-keyboard-response","86","94609","0.0-3.0-1.41","","","Repeat","n","false"
"null","<div style=""font-size:60px;"">+</div>","null","html-keyboard-response","87","95116","0.0-3.0-0.42","","fixation","","",""
"923","Set1/140b.jpg","79","image-keyboard-response","88","96041","0.0-3.0-1.42","","","Update","n","false"
"null","<div style=""font-size:60px;"">+</div>","null","html-keyboard-response","89","96569","0.0-3.0-0.43","","fixation","","",""
"900","Set1/037a.jpg","79","image-keyboard-response","90","97473","0.0-3.0-1.43","","","Repeat","o","true"
"null","<div style=""font-size:60px;"">+</div>","null","html-keyboard-response","91","97976","0.0-3.0-0.44","","fixation","","",""
"1087","Set1/153b.jpg","79","image-keyboard-response","92","99065","0.0-3.0-1.44","","","Update","o","true"
"null","<div style=""font-size:60px;"">+</div>","null","html-keyboard-response","93","99570","0.0-3.0-0.45","","fixation","","",""
"1101","Set1/168a.jpg","78","image-keyboard-response","94","100673","0.0-3.0-1.45","","","Set_2_Only","n","true"
"null","<div style=""font-size:60px;"">+</div>","null","html-keyboard-response","95","101179","0.0-3.0-0.46","","fixation","","",""
"1070","Set1/091a.jpg","79","image-keyboard-response","96","102265","0.0-3.0-1.46","","","Repeat","n","false"
"null","<div style=""font-size:60px;"">+</div>","null","html-keyboard-response","97","102773","0.0-3.0-0.47","","fixation","","",""
"1137","Set1/119b.jpg","79","image-keyboard-response","98","103913","0.0-3.0-1.47","","","Update","o","true"
"null","<div style=""font-size:60px;"">+</div>","null","html-keyboard-response","99","104430","0.0-3.0-0.48","","fixation","","",""
"2915","Set1/168a.jpg","78","image-keyboard-response","100","107346","0.0-3.0-1.48","","","Set_2_Only","o","false"
"null","<div style=""font-size:60px;"">+</div>","null","html-keyboard-response","101","107858","0.0-3.0-0.49","","fixation","","",""
"757","Set1/038a.jpg","79","image-keyboard-response","102","108617","0.0-3.0-1.49","","","Repeat","o","true"
"null","<div style=""font-size:60px;"">+</div>","null","html-keyboard-response","103","109133","0.0-3.0-0.50","","fixation","","",""
"1369","Set1/154b.jpg","79","image-keyboard-response","104","110505","0.0-3.0-1.50","","","Update","n","false"
"null","<div style=""font-size:60px;"">+</div>","null","html-keyboard-response","105","111008","0.0-3.0-0.51","","fixation","","",""
"1231","Set1/067a.jpg","78","image-keyboard-response","106","112258","0.0-3.0-1.51","","","Repeat","n","true"
"null","<div style=""font-size:60px;"">+</div>","null","html-keyboard-response","107","112773","0.0-3.0-0.52","","fixation","","",""
"800","Set1/080a.jpg","79","image-keyboard-response","108","113577","0.0-3.0-1.52","","","Repeat","o","true"
"null","<div style=""font-size:60px;"">+</div>","null","html-keyboard-response","109","114087","0.0-3.0-0.53","","fixation","","",""
"890","Set1/154b.jpg","79","image-keyboard-response","110","114977","0.0-3.0-1.53","","","Update","o","true"
"null","<div style=""font-size:60px;"">+</div>","null","html-keyboard-response","111","115508","0.0-3.0-0.54","","fixation","","",""
"959","Set1/087a.jpg","79","image-keyboard-response","112","116545","0.0-3.0-1.54","","","Repeat","n","false"
"null","<div style=""font-size:60px;"">+</div>","null","html-keyboard-response","113","117071","0.0-3.0-0.55","","fixation","","",""
"1065","Set1/149b.jpg","79","image-keyboard-response","114","118137","0.0-3.0-1.55","","","Update","n","false"
"null","<div style=""font-size:60px;"">+</div>","null","html-keyboard-response","115","118649","0.0-3.0-0.56","","fixation","","",""
"988","Set1/173a.jpg","78","image-keyboard-response","116","119641","0.0-3.0-1.56","","","Set_2_Only","n","true"
"null","<div style=""font-size:60px;"">+</div>","null","html-keyboard-response","117","120166","0.0-3.0-0.57","","fixation","","",""
"783","Set1/040a.jpg","79","image-keyboard-response","118","120953","0.0-3.0-1.57","","","Repeat","o","true"
"null","<div style=""font-size:60px;"">+</div>","null","html-keyboard-response","119","121462","0.0-3.0-0.58","","fixation","","",""
"786","Set1/058a.jpg","79","image-keyboard-response","120","122249","0.0-3.0-1.58","","","Repeat","o","true"
"null","<div style=""font-size:60px;"">+</div>","null","html-keyboard-response","121","122758","0.0-3.0-0.59","","fixation","","",""
"851","Set1/173a.jpg","79","image-keyboard-response","122","123610","0.0-3.0-1.59","","","Set_2_Only","o","true"
"null","<div style=""font-size:60px;"">+</div>","null","html-keyboard-response","123","124118","0.0-3.0-0.60","","fixation","","",""
"834","Set1/140b.jpg","79","image-keyboard-response","124","124954","0.0-3.0-1.60","","","Update","o","true"
"null","<div style=""font-size:60px;"">+</div>","null","html-keyboard-response","125","125462","0.0-3.0-0.61","","fixation","","",""
"1153","Set1/187a.jpg","78","image-keyboard-response","126","126617","0.0-3.0-1.61","","","Set_2_Only","n","true"
"null","<div style=""font-size:60px;"">+</div>","null","html-keyboard-response","127","127119","0.0-3.0-0.62","","fixation","","",""
"833","Set1/067a.jpg","79","image-keyboard-response","128","127953","0.0-3.0-1.62","","","Repeat","o","true"
"null","<div style=""font-size:60px;"">+</div>","null","html-keyboard-response","129","128462","0.0-3.0-0.63","","fixation","","",""
"1040","Set1/126b.jpg","79","image-keyboard-response","130","129505","0.0-3.0-1.63","","","Update","o","true"
"null","<div style=""font-size:60px;"">+</div>","null","html-keyboard-response","131","130025","0.0-3.0-0.64","","fixation","","",""
"1655","Set1/188a.jpg","78","image-keyboard-response","132","131681","0.0-3.0-1.64","","","Set_2_Only","n","true"
"null","<div style=""font-size:60px;"">+</div>","null","html-keyboard-response","133","132196","0.0-3.0-0.65","","fixation","","",""
"851","Set1/145b.jpg","79","image-keyboard-response","134","133049","0.0-3.0-1.65","","","Update","o","true"
"null","<div style=""font-size:60px;"">+</div>","null","html-keyboard-response","135","133556","0.0-3.0-0.66","","fixation","","",""
"1146","Set1/075a.jpg","78","image-keyboard-response","136","134705","0.0-3.0-1.66","","","Repeat","o","false"
"null","<div style=""font-size:60px;"">+</div>","null","html-keyboard-response","137","135213","0.0-3.0-0.67","","fixation","","",""
"1525","Set1/059a.jpg","79","image-keyboard-response","138","136753","0.0-3.0-1.67","","","Repeat","n","false"
"null","<div style=""font-size:60px;"">+</div>","null","html-keyboard-response","139","137260","0.0-3.0-0.68","","fixation","","",""
"948","Set1/149b.jpg","79","image-keyboard-response","140","138209","0.0-3.0-1.68","","","Update","o","true"
"null","<div style=""font-size:60px;"">+</div>","null","html-keyboard-response","141","138713","0.0-3.0-0.69","","fixation","","",""
"732","Set1/087a.jpg","79","image-keyboard-response","142","139449","0.0-3.0-1.69","","","Repeat","o","true"
"null","<div style=""font-size:60px;"">+</div>","null","html-keyboard-response","143","139963","0.0-3.0-0.70","","fixation","","",""
"812","Set1/187a.jpg","79","image-keyboard-response","144","140777","0.0-3.0-1.70","","","Set_2_Only","o","true"
"null","<div style=""font-size:60px;"">+</div>","null","html-keyboard-response","145","141307","0.0-3.0-0.71","","fixation","","",""
"885","Set1/059a.jpg","79","image-keyboard-response","146","142193","0.0-3.0-1.71","","","Repeat","o","true"
"null","<div style=""font-size:60px;"">+</div>","null","html-keyboard-response","147","142697","0.0-3.0-0.72","","fixation","","",""
"628","Set1/157b.jpg","79","image-keyboard-response","148","143330","0.0-3.0-1.72","","","Update","o","true"
"null","<div style=""font-size:60px;"">+</div>","null","html-keyboard-response","149","143854","0.0-3.0-0.73","","fixation","","",""
"712","Set1/123b.jpg","79","image-keyboard-response","150","144569","0.0-3.0-1.73","","","Update","o","true"
"null","<div style=""font-size:60px;"">+</div>","null","html-keyboard-response","151","145073","0.0-3.0-0.74","","fixation","","",""
"1717","Set1/175a.jpg","79","image-keyboard-response","152","146793","0.0-3.0-1.74","","","Set_2_Only","o","true"
"null","<div style=""font-size:60px;"">+</div>","null","html-keyboard-response","153","147323","0.0-3.0-0.75","","fixation","","",""
"861","Set1/188a.jpg","79","image-keyboard-response","154","148186","0.0-3.0-1.75","","","Set_2_Only","o","true"
"null","<div style=""font-size:60px;"">+</div>","null","html-keyboard-response","155","148708","0.0-3.0-0.76","","fixation","","",""
"670","Set1/039a.jpg","79","image-keyboard-response","156","149385","0.0-3.0-1.76","","","Repeat","o","true"
"null","<div style=""font-size:60px;"">+</div>","null","html-keyboard-response","157","149886","0.0-3.0-0.77","","fixation","","",""
"659","Set1/141b.jpg","79","image-keyboard-response","158","150553","0.0-3.0-1.77","","","Update","o","true"
"null","<div style=""font-size:60px;"">+</div>","null","html-keyboard-response","159","151058","0.0-3.0-0.78","","fixation","","",""
"773","Set1/091a.jpg","79","image-keyboard-response","160","151834","0.0-3.0-1.78","","","Repeat","o","true"
"null","<div style=""font-size:60px;"">+</div>","null","html-keyboard-response","161","152356","0.0-3.0-0.79","","fixation","","",""
"950","Set1/138b.jpg","79","image-keyboard-response","162","153314","0.0-3.0-1.79","","","Update","o","true"
"null","<div style=""font-size:60px;"">+</div>","null","html-keyboard-response","163","153840","0.0-3.0-0.80","","fixation","","",""
"1070","Set1/055a.jpg","79","image-keyboard-response","164","154931","0.0-3.0-1.80","","","Repeat","n","false"
"null","<div style=""font-size:60px;"">+</div>","null","html-keyboard-response","165","155449","0.0-3.0-0.81","","fixation","","",""
"867","Set1/128b.jpg","78","image-keyboard-response","166","156322","0.0-3.0-1.81","","","Update","n","true"
"null","<div style=""font-size:60px;"">+</div>","null","html-keyboard-response","167","156840","0.0-3.0-0.82","","fixation","","",""
"861","Set1/046a.jpg","79","image-keyboard-response","168","157715","0.0-3.0-1.82","","","Repeat","n","false"
"null","<div style=""font-size:60px;"">+</div>","null","html-keyboard-response","169","158224","0.0-3.0-0.83","","fixation","","",""
"844","Set1/139b.jpg","79","image-keyboard-response","170","159075","0.0-3.0-1.83","","","Update","n","false"
"null","<div style=""font-size:60px;"">+</div>","null","html-keyboard-response","171","159591","0.0-3.0-0.84","","fixation","","",""
"1450","Set1/084a.jpg","79","image-keyboard-response","172","161074","0.0-3.0-1.84","","","Repeat","n","false"
"null","<div style=""font-size:60px;"">+</div>","null","html-keyboard-response","173","161591","0.0-3.0-0.85","","fixation","","",""
"1190","Set1/147b.jpg","79","image-keyboard-response","174","162786","0.0-3.0-1.85","","","Update","n","false"
"null","<div style=""font-size:60px;"">+</div>","null","html-keyboard-response","175","163295","0.0-3.0-0.86","","fixation","","",""
"1068","Set1/176a.jpg","78","image-keyboard-response","176","164369","0.0-3.0-1.86","","","Set_2_Only","n","true"
"null","<div style=""font-size:60px;"">+</div>","null","html-keyboard-response","177","164893","0.0-3.0-0.87","","fixation","","",""
"900","Set1/042a.jpg","78","image-keyboard-response","178","165818","0.0-3.0-1.87","","","Repeat","n","true"
"null","<div style=""font-size:60px;"">+</div>","null","html-keyboard-response","179","166345","0.0-3.0-0.88","","fixation","","",""
"1259","Set1/114b.jpg","79","image-keyboard-response","180","167610","0.0-3.0-1.88","","","Update","n","false"
"null","<div style=""font-size:60px;"">+</div>","null","html-keyboard-response","181","168115","0.0-3.0-0.89","","fixation","","",""
"1062","Set1/064a.jpg","79","image-keyboard-response","182","169210","0.0-3.0-1.89","","","Repeat","n","false"
"null","<div style=""font-size:60px;"">+</div>","null","html-keyboard-response","183","169719","0.0-3.0-0.90","","fixation","","",""
"922","Set1/036a.jpg","79","image-keyboard-response","184","170666","0.0-3.0-1.90","","","Repeat","n","false"
"null","<div style=""font-size:60px;"">+</div>","null","html-keyboard-response","185","171192","0.0-3.0-0.91","","fixation","","",""
"761","Set1/139b.jpg","79","image-keyboard-response","186","171963","0.0-3.0-1.91","","","Update","o","true"
"null","<div style=""font-size:60px;"">+</div>","null","html-keyboard-response","187","172496","0.0-3.0-0.92","","fixation","","",""
"1062","Set1/128b.jpg","79","image-keyboard-response","188","173561","0.0-3.0-1.92","","","Update","o","true"
"null","<div style=""font-size:60px;"">+</div>","null","html-keyboard-response","189","174080","0.0-3.0-0.93","","fixation","","",""
"1181","Set1/044a.jpg","79","image-keyboard-response","190","175290","0.0-3.0-1.93","","","Repeat","n","false"
"null","<div style=""font-size:60px;"">+</div>","null","html-keyboard-response","191","175818","0.0-3.0-0.94","","fixation","","",""
"913","Set1/162a.jpg","78","image-keyboard-response","192","176738","0.0-3.0-1.94","","","Set_2_Only","n","true"
"null","<div style=""font-size:60px;"">+</div>","null","html-keyboard-response","193","177256","0.0-3.0-0.95","","fixation","","",""
"942","Set1/074a.jpg","79","image-keyboard-response","194","178227","0.0-3.0-1.95","","","Repeat","n","false"
"null","<div style=""font-size:60px;"">+</div>","null","html-keyboard-response","195","178757","0.0-3.0-0.96","","fixation","","",""
"946","Set1/114b.jpg","79","image-keyboard-response","196","179705","0.0-3.0-1.96","","","Update","o","true"
"null","<div style=""font-size:60px;"">+</div>","null","html-keyboard-response","197","180226","0.0-3.0-0.97","","fixation","","",""
"1307","Set1/159b.jpg","79","image-keyboard-response","198","181539","0.0-3.0-1.97","","","Update","n","false"
"null","<div style=""font-size:60px;"">+</div>","null","html-keyboard-response","199","182057","0.0-3.0-0.98","","fixation","","",""
"1035","Set1/143b.jpg","79","image-keyboard-response","200","183098","0.0-3.0-1.98","","","Update","n","false"
"null","<div style=""font-size:60px;"">+</div>","null","html-keyboard-response","201","183617","0.0-3.0-0.99","","fixation","","",""
"1124","Set1/103b.jpg","79","image-keyboard-response","202","184746","0.0-3.0-1.99","","","Update","n","false"
"null","<div style=""font-size:60px;"">+</div>","null","html-keyboard-response","203","185258","0.0-3.0-0.100","","fixation","","",""
"778","Set1/047a.jpg","78","image-keyboard-response","204","186066","0.0-3.0-1.100","","","Repeat","n","true"
"null","<div style=""font-size:60px;"">+</div>","null","html-keyboard-response","205","186570","0.0-3.0-0.101","","fixation","","",""
"657","Set1/064a.jpg","79","image-keyboard-response","206","187234","0.0-3.0-1.101","","","Repeat","o","true"
"null","<div style=""font-size:60px;"">+</div>","null","html-keyboard-response","207","187758","0.0-3.0-0.102","","fixation","","",""
"1206","Set1/191a.jpg","78","image-keyboard-response","208","188970","0.0-3.0-1.102","","","Set_2_Only","n","true"
"null","<div style=""font-size:60px;"">+</div>","null","html-keyboard-response","209","189490","0.0-3.0-0.103","","fixation","","",""
"1860","Set1/071a.jpg","78","image-keyboard-response","210","191378","0.0-3.0-1.103","","","Repeat","n","true"
"null","<div style=""font-size:60px;"">+</div>","null","html-keyboard-response","211","191883","0.0-3.0-0.104","","fixation","","",""
"1162","Set1/096a.jpg","79","image-keyboard-response","212","193074","0.0-3.0-1.104","","","Repeat","n","false"
"null","<div style=""font-size:60px;"">+</div>","null","html-keyboard-response","213","193587","0.0-3.0-0.105","","fixation","","",""
"1355","Set1/098b.jpg","78","image-keyboard-response","214","194947","0.0-3.0-1.105","","","Update","n","true"
"null","<div style=""font-size:60px;"">+</div>","null","html-keyboard-response","215","195478","0.0-3.0-0.106","","fixation","","",""
"1574","Set1/106b.jpg","78","image-keyboard-response","216","197058","0.0-3.0-1.106","","","Update","n","true"
"null","<div style=""font-size:60px;"">+</div>","null","html-keyboard-response","217","197571","0.0-3.0-0.107","","fixation","","",""
"936","Set1/159b.jpg","79","image-keyboard-response","218","198515","0.0-3.0-1.107","","","Update","o","true"
"null","<div style=""font-size:60px;"">+</div>","null","html-keyboard-response","219","199024","0.0-3.0-0.108","","fixation","","",""
"737","Set1/071a.jpg","79","image-keyboard-response","220","199762","0.0-3.0-1.108","","","Repeat","o","true"
"null","<div style=""font-size:60px;"">+</div>","null","html-keyboard-response","221","200275","0.0-3.0-0.109","","fixation","","",""
"729","Set1/047a.jpg","79","image-keyboard-response","222","201012","0.0-3.0-1.109","","","Repeat","o","true"
"null","<div style=""font-size:60px;"">+</div>","null","html-keyboard-response","223","201526","0.0-3.0-0.110","","fixation","","",""
"1064","Set1/144b.jpg","79","image-keyboard-response","224","202594","0.0-3.0-1.110","","","Update","n","false"
"null","<div style=""font-size:60px;"">+</div>","null","html-keyboard-response","225","203104","0.0-3.0-0.111","","fixation","","",""
"1057","Set1/069a.jpg","79","image-keyboard-response","226","204186","0.0-3.0-1.111","","","Repeat","n","false"
"null","<div style=""font-size:60px;"">+</div>","null","html-keyboard-response","227","204698","0.0-3.0-0.112","","fixation","","",""
"785","Set1/034a.jpg","79","image-keyboard-response","228","205513","0.0-3.0-1.112","","","Repeat","n","false"
"null","<div style=""font-size:60px;"">+</div>","null","html-keyboard-response","229","206027","0.0-3.0-0.113","","fixation","","",""
"1510","Set1/050a.jpg","79","image-keyboard-response","230","207562","0.0-3.0-1.113","","","Repeat","n","false"
"null","<div style=""font-size:60px;"">+</div>","null","html-keyboard-response","231","208090","0.0-3.0-0.114","","fixation","","",""
"1258","Set1/068a.jpg","79","image-keyboard-response","232","209378","0.0-3.0-1.114","","","Repeat","n","false"
"null","<div style=""font-size:60px;"">+</div>","null","html-keyboard-response","233","209886","0.0-3.0-0.115","","fixation","","",""
"917","Set1/130b.jpg","79","image-keyboard-response","234","210810","0.0-3.0-1.115","","","Update","n","false"
"null","<div style=""font-size:60px;"">+</div>","null","html-keyboard-response","235","211340","0.0-3.0-0.116","","fixation","","",""
"630","Set1/046a.jpg","79","image-keyboard-response","236","211978","0.0-3.0-1.116","","","Repeat","o","true"
"null","<div style=""font-size:60px;"">+</div>","null","html-keyboard-response","237","212512","0.0-3.0-0.117","","fixation","","",""
"1205","Set1/073a.jpg","78","image-keyboard-response","238","213754","0.0-3.0-1.117","","","Repeat","n","true"
"null","<div style=""font-size:60px;"">+</div>","null","html-keyboard-response","239","214278","0.0-3.0-0.118","","fixation","","",""
"1191","Set1/078a.jpg","79","image-keyboard-response","240","215498","0.0-3.0-1.118","","","Repeat","n","false"
"null","<div style=""font-size:60px;"">+</div>","null","html-keyboard-response","241","216024","0.0-3.0-0.119","","fixation","","",""
"818","Set1/147b.jpg","79","image-keyboard-response","242","216849","0.0-3.0-1.119","","","Update","o","true"
"null","<div style=""font-size:60px;"">+</div>","null","html-keyboard-response","243","217371","0.0-3.0-0.120","","fixation","","",""
"1538","Set1/066a.jpg","79","image-keyboard-response","244","218938","0.0-3.0-1.120","","","Repeat","n","false"
"null","<div style=""font-size:60px;"">+</div>","null","html-keyboard-response","245","219465","0.0-3.0-0.121","","fixation","","",""
"686","Set1/106b.jpg","79","image-keyboard-response","246","220155","0.0-3.0-1.121","","","Update","o","true"
"null","<div style=""font-size:60px;"">+</div>","null","html-keyboard-response","247","220669","0.0-3.0-0.122","","fixation","","",""
"911","Set1/112b.jpg","78","image-keyboard-response","248","221586","0.0-3.0-1.122","","","Update","n","true"
"null","<div style=""font-size:60px;"">+</div>","null","html-keyboard-response","249","222092","0.0-3.0-0.123","","fixation","","",""
"1080","Set1/185a.jpg","78","image-keyboard-response","250","223178","0.0-3.0-1.123","","","Set_2_Only","n","true"
"null","<div style=""font-size:60px;"">+</div>","null","html-keyboard-response","251","223686","0.0-3.0-0.124","","fixation","","",""
"742","Set1/036a.jpg","79","image-keyboard-response","252","224434","0.0-3.0-1.124","","","Repeat","o","true"
"null","<div style=""font-size:60px;"">+</div>","null","html-keyboard-response","253","224951","0.0-3.0-0.125","","fixation","","",""
"938","Set1/098b.jpg","79","image-keyboard-response","254","225898","0.0-3.0-1.125","","","Update","o","true"
"null","<div style=""font-size:60px;"">+</div>","null","html-keyboard-response","255","226421","0.0-3.0-0.126","","fixation","","",""
"717","Set1/096a.jpg","79","image-keyboard-response","256","227145","0.0-3.0-1.126","","","Repeat","o","true"
"null","<div style=""font-size:60px;"">+</div>","null","html-keyboard-response","257","227657","0.0-3.0-0.127","","fixation","","",""
"796","Set1/185a.jpg","79","image-keyboard-response","258","228457","0.0-3.0-1.127","","","Set_2_Only","o","true"
"null","<div style=""font-size:60px;"">+</div>","null","html-keyboard-response","259","228968","0.0-3.0-0.128","","fixation","","",""
"650","Set1/066a.jpg","79","image-keyboard-response","260","229626","0.0-3.0-1.128","","","Repeat","o","true"
"null","<div style=""font-size:60px;"">+</div>","null","html-keyboard-response","261","230140","0.0-3.0-0.129","","fixation","","",""
"655","Set1/144b.jpg","79","image-keyboard-response","262","230802","0.0-3.0-1.129","","","Update","o","true"
"null","<div style=""font-size:60px;"">+</div>","null","html-keyboard-response","263","231312","0.0-3.0-0.130","","fixation","","",""
"722","Set1/112b.jpg","79","image-keyboard-response","264","232042","0.0-3.0-1.130","","","Update","o","true"
"null","<div style=""font-size:60px;"">+</div>","null","html-keyboard-response","265","232562","0.0-3.0-0.131","","fixation","","",""
"753","Set1/162a.jpg","79","image-keyboard-response","266","233322","0.0-3.0-1.131","","","Set_2_Only","o","true"
"null","<div style=""font-size:60px;"">+</div>","null","html-keyboard-response","267","233827","0.0-3.0-0.132","","fixation","","",""
"796","Set1/176a.jpg","79","image-keyboard-response","268","234632","0.0-3.0-1.132","","","Set_2_Only","o","true"
"null","<div style=""font-size:60px;"">+</div>","null","html-keyboard-response","269","235140","0.0-3.0-0.133","","fixation","","",""
"661","Set1/050a.jpg","79","image-keyboard-response","270","235810","0.0-3.0-1.133","","","Repeat","o","true"
"null","<div style=""font-size:60px;"">+</div>","null","html-keyboard-response","271","236344","0.0-3.0-0.134","","fixation","","",""
"742","Set1/078a.jpg","79","image-keyboard-response","272","237090","0.0-3.0-1.134","","","Repeat","o","true"
"null","<div style=""font-size:60px;"">+</div>","null","html-keyboard-response","273","237609","0.0-3.0-0.135","","fixation","","",""
"1049","Set1/150b.jpg","79","image-keyboard-response","274","238665","0.0-3.0-1.135","","","Update","n","false"
"null","<div style=""font-size:60px;"">+</div>","null","html-keyboard-response","275","239187","0.0-3.0-0.136","","fixation","","",""
"940","Set1/043a.jpg","79","image-keyboard-response","276","240154","0.0-3.0-1.136","","","Repeat","n","false"
"null","<div style=""font-size:60px;"">+</div>","null","html-keyboard-response","277","240672","0.0-3.0-0.137","","fixation","","",""
"1420","Set1/100b.jpg","78","image-keyboard-response","278","242098","0.0-3.0-1.137","","","Update","n","true"
"null","<div style=""font-size:60px;"">+</div>","null","html-keyboard-response","279","242625","0.0-3.0-0.138","","fixation","","",""
"816","Set1/042a.jpg","79","image-keyboard-response","280","243449","0.0-3.0-1.138","","","Repeat","o","true"
"null","<div style=""font-size:60px;"">+</div>","null","html-keyboard-response","281","243970","0.0-3.0-0.139","","fixation","","",""
"2242","Set1/131b.jpg","78","image-keyboard-response","282","246218","0.0-3.0-1.139","","","Update","n","true"
"null","<div style=""font-size:60px;"">+</div>","null","html-keyboard-response","283","246724","0.0-3.0-0.140","","fixation","","",""
"998","Set1/073a.jpg","79","image-keyboard-response","284","247729","0.0-3.0-1.140","","","Repeat","o","true"
"null","<div style=""font-size:60px;"">+</div>","null","html-keyboard-response","285","248252","0.0-3.0-0.141","","fixation","","",""
"645","Set1/074a.jpg","79","image-keyboard-response","286","248906","0.0-3.0-1.141","","","Repeat","o","true"
"null","<div style=""font-size:60px;"">+</div>","null","html-keyboard-response","287","249424","0.0-3.0-0.142","","fixation","","",""
"711","Set1/034a.jpg","79","image-keyboard-response","288","250138","0.0-3.0-1.142","","","Repeat","o","true"
"null","<div style=""font-size:60px;"">+</div>","null","html-keyboard-response","289","250658","0.0-3.0-0.143","","fixation","","",""
"846","Set1/068a.jpg","79","image-keyboard-response","290","251506","0.0-3.0-1.143","","","Repeat","o","true"
"null","<div style=""font-size:60px;"">+</div>","null","html-keyboard-response","291","252024","0.0-3.0-0.144","","fixation","","",""
"909","Set1/191a.jpg","79","image-keyboard-response","292","252942","0.0-3.0-1.144","","","Set_2_Only","o","true"
"null","<div style=""font-size:60px;"">+</div>","null","html-keyboard-response","293","253454","0.0-3.0-0.145","","fixation","","",""
"858","Set1/131b.jpg","79","image-keyboard-response","294","254314","0.0-3.0-1.145","","","Update","o","true"
"null","<div style=""font-size:60px;"">+</div>","null","html-keyboard-response","295","254846","0.0-3.0-0.146","","fixation","","",""
"663","Set1/043a.jpg","79","image-keyboard-response","296","255514","0.0-3.0-1.146","","","Repeat","o","true"
"null","<div style=""font-size:60px;"">+</div>","null","html-keyboard-response","297","256018","0.0-3.0-0.147","","fixation","","",""
"669","Set1/100b.jpg","79","image-keyboard-response","298","256690","0.0-3.0-1.147","","","Update","o","true"
"null","<div style=""font-size:60px;"">+</div>","null","html-keyboard-response","299","257205","0.0-3.0-0.148","","fixation","","",""
"735","Set1/055a.jpg","79","image-keyboard-response","300","257945","0.0-3.0-1.148","","","Repeat","o","true"
"null","<div style=""font-size:60px;"">+</div>","null","html-keyboard-response","301","258456","0.0-3.0-0.149","","fixation","","",""
"1114","Set1/041a.jpg","79","image-keyboard-response","302","259601","0.0-3.0-1.149","","","Repeat","n","false"
"null","<div style=""font-size:60px;"">+</div>","null","html-keyboard-response","303","260113","0.0-3.0-0.150","","fixation","","",""
"737","Set1/069a.jpg","79","image-keyboard-response","304","260857","0.0-3.0-1.150","","","Repeat","o","true"
"null","<div style=""font-size:60px;"">+</div>","null","html-keyboard-response","305","261380","0.0-3.0-0.151","","fixation","","",""
"1048","Set1/061a.jpg","78","image-keyboard-response","306","262458","0.0-3.0-1.151","","","Repeat","n","true"
"null","<div style=""font-size:60px;"">+</div>","null","html-keyboard-response","307","262988","0.0-3.0-0.152","","fixation","","",""
"949","Set1/103b.jpg","79","image-keyboard-response","308","263946","0.0-3.0-1.152","","","Update","o","true"
"null","<div style=""font-size:60px;"">+</div>","null","html-keyboard-response","309","264464","0.0-3.0-0.153","","fixation","","",""
"962","Set1/044a.jpg","79","image-keyboard-response","310","265433","0.0-3.0-1.153","","","Repeat","o","true"
"null","<div style=""font-size:60px;"">+</div>","null","html-keyboard-response","311","265954","0.0-3.0-0.154","","fixation","","",""
"908","Set1/150b.jpg","79","image-keyboard-response","312","266874","0.0-3.0-1.154","","","Update","o","true"
"null","<div style=""font-size:60px;"">+</div>","null","html-keyboard-response","313","267374","0.0-3.0-0.155","","fixation","","",""
"835","Set1/084a.jpg","79","image-keyboard-response","314","268217","0.0-3.0-1.155","","","Repeat","o","true"
"null","<div style=""font-size:60px;"">+</div>","null","html-keyboard-response","315","268732","0.0-3.0-0.156","","fixation","","",""
"594","Set1/130b.jpg","79","image-keyboard-response","316","269330","0.0-3.0-1.156","","","Update","o","true"
"null","<div style=""font-size:60px;"">+</div>","null","html-keyboard-response","317","269836","0.0-3.0-0.157","","fixation","","",""
"673","Set1/143b.jpg","79","image-keyboard-response","318","270514","0.0-3.0-1.157","","","Update","o","true"
"null","<div style=""font-size:60px;"">+</div>","null","html-keyboard-response","319","271026","0.0-3.0-0.158","","fixation","","",""
"720","Set1/061a.jpg","79","image-keyboard-response","320","271753","0.0-3.0-1.158","","","Repeat","o","true"
"null","<div style=""font-size:60px;"">+</div>","null","html-keyboard-response","321","272277","0.0-3.0-0.159","","fixation","","",""
"644","Set1/041a.jpg","79","image-keyboard-response","322","272930","0.0-3.0-1.159","","","Repeat","o","true"
"null","<div style=""font-size:60px;"">+</div>","null","html-keyboard-response","323","273449","0.0-3.0-0.160","","fixation","","",""
"1221","Set1/113b.jpg","79","image-keyboard-response","324","274674","0.0-3.0-1.160","","","Update","n","false"
"null","<div style=""font-size:60px;"">+</div>","null","html-keyboard-response","325","275187","0.0-3.0-0.161","","fixation","","",""
"1425","Set1/105b.jpg","79","image-keyboard-response","326","276618","0.0-3.0-1.161","","","Update","n","false"
"null","<div style=""font-size:60px;"">+</div>","null","html-keyboard-response","327","277141","0.0-3.0-0.162","","fixation","","",""
"793","Set1/056a.jpg","79","image-keyboard-response","328","277961","0.0-3.0-1.162","","","Repeat","n","false"
"null","<div style=""font-size:60px;"">+</div>","null","html-keyboard-response","329","278485","0.0-3.0-0.163","","fixation","","",""
"1750","Set1/070a.jpg","78","image-keyboard-response","330","280266","0.0-3.0-1.163","","","Repeat","n","true"
"null","<div style=""font-size:60px;"">+</div>","null","html-keyboard-response","331","280783","0.0-3.0-0.164","","fixation","","",""
"1169","Set1/089a.jpg","79","image-keyboard-response","332","281986","0.0-3.0-1.164","","","Repeat","n","false"
"null","<div style=""font-size:60px;"">+</div>","null","html-keyboard-response","333","282502","0.0-3.0-0.165","","fixation","","",""
"1094","Set1/165a.jpg","78","image-keyboard-response","334","283601","0.0-3.0-1.165","","","Set_2_Only","n","true"
"null","<div style=""font-size:60px;"">+</div>","null","html-keyboard-response","335","284127","0.0-3.0-0.166","","fixation","","",""
"895","Set1/065a.jpg","79","image-keyboard-response","336","285050","0.0-3.0-1.166","","","Repeat","n","false"
"null","<div style=""font-size:60px;"">+</div>","null","html-keyboard-response","337","285565","0.0-3.0-0.167","","fixation","","",""
"1254","Set1/104b.jpg","79","image-keyboard-response","338","286825","0.0-3.0-1.167","","","Update","n","false"
"null","<div style=""font-size:60px;"">+</div>","null","html-keyboard-response","339","287347","0.0-3.0-0.168","","fixation","","",""
"891","Set1/065a.jpg","79","image-keyboard-response","340","288242","0.0-3.0-1.168","","","Repeat","o","true"
"null","<div style=""font-size:60px;"">+</div>","null","html-keyboard-response","341","288769","0.0-3.0-0.169","","fixation","","",""
"1041","Set1/082a.jpg","79","image-keyboard-response","342","289842","0.0-3.0-1.169","","","Repeat","n","false"
"null","<div style=""font-size:60px;"">+</div>","null","html-keyboard-response","343","290347","0.0-3.0-0.170","","fixation","","",""
"992","Set1/134b.jpg","78","image-keyboard-response","344","291346","0.0-3.0-1.170","","","Update","n","true"
"null","<div style=""font-size:60px;"">+</div>","null","html-keyboard-response","345","291863","0.0-3.0-0.171","","fixation","","",""
"1085","Set1/158b.jpg","78","image-keyboard-response","346","292953","0.0-3.0-1.171","","","Update","n","true"
"null","<div style=""font-size:60px;"">+</div>","null","html-keyboard-response","347","293472","0.0-3.0-0.172","","fixation","","",""
"1200","Set1/057a.jpg","78","image-keyboard-response","348","294697","0.0-3.0-1.172","","","Repeat","n","true"
"null","<div style=""font-size:60px;"">+</div>","null","html-keyboard-response","349","295207","0.0-3.0-0.173","","fixation","","",""
"912","Set1/105b.jpg","79","image-keyboard-response","350","296128","0.0-3.0-1.173","","","Update","o","true"
"null","<div style=""font-size:60px;"">+</div>","null","html-keyboard-response","351","296645","0.0-3.0-0.174","","fixation","","",""
"1222","Set1/161a.jpg","78","image-keyboard-response","352","297874","0.0-3.0-1.174","","","Set_2_Only","n","true"
"null","<div style=""font-size:60px;"">+</div>","null","html-keyboard-response","353","298395","0.0-3.0-0.175","","fixation","","",""
"848","Set1/101b.jpg","78","image-keyboard-response","354","299249","0.0-3.0-1.175","","","Update","n","true"
"null","<div style=""font-size:60px;"">+</div>","null","html-keyboard-response","355","299757","0.0-3.0-0.176","","fixation","","",""
"868","Set1/089a.jpg","79","image-keyboard-response","356","300634","0.0-3.0-1.176","","","Repeat","o","true"
"null","<div style=""font-size:60px;"">+</div>","null","html-keyboard-response","357","301146","0.0-3.0-0.177","","fixation","","",""
"588","Set1/101b.jpg","79","image-keyboard-response","358","301737","0.0-3.0-1.177","","","Update","o","true"
"null","<div style=""font-size:60px;"">+</div>","null","html-keyboard-response","359","302256","0.0-3.0-0.178","","fixation","","",""
"766","Set1/134b.jpg","79","image-keyboard-response","360","303025","0.0-3.0-1.178","","","Update","o","true"
"null","<div style=""font-size:60px;"">+</div>","null","html-keyboard-response","361","303553","0.0-3.0-0.179","","fixation","","",""
"689","Set1/161a.jpg","79","image-keyboard-response","362","304250","0.0-3.0-1.179","","","Set_2_Only","o","true"
"null","<div style=""font-size:60px;"">+</div>","null","html-keyboard-response","363","304771","0.0-3.0-0.180","","fixation","","",""
"1488","Set1/116b.jpg","78","image-keyboard-response","364","306265","0.0-3.0-1.180","","","Update","n","true"
"null","<div style=""font-size:60px;"">+</div>","null","html-keyboard-response","365","306772","0.0-3.0-0.181","","fixation","","",""
"1672","Set1/152b.jpg","79","image-keyboard-response","366","308449","0.0-3.0-1.181","","","Update","n","false"
"null","<div style=""font-size:60px;"">+</div>","null","html-keyboard-response","367","308959","0.0-3.0-0.182","","fixation","","",""
"973","Set1/045a.jpg","79","image-keyboard-response","368","309961","0.0-3.0-1.182","","","Repeat","n","false"
"null","<div style=""font-size:60px;"">+</div>","null","html-keyboard-response","369","310476","0.0-3.0-0.183","","fixation","","",""
"1160","Set1/183a.jpg","78","image-keyboard-response","370","311641","0.0-3.0-1.183","","","Set_2_Only","n","true"
"null","<div style=""font-size:60px;"">+</div>","null","html-keyboard-response","371","312147","0.0-3.0-0.184","","fixation","","",""
"1246","Set1/053a.jpg","78","image-keyboard-response","372","313426","0.0-3.0-1.184","","","Repeat","n","true"
"null","<div style=""font-size:60px;"">+</div>","null","html-keyboard-response","373","313945","0.0-3.0-0.185","","fixation","","",""
"995","Set1/182a.jpg","78","image-keyboard-response","374","314945","0.0-3.0-1.185","","","Set_2_Only","n","true"
"null","<div style=""font-size:60px;"">+</div>","null","html-keyboard-response","375","315477","0.0-3.0-0.186","","fixation","","",""
"2599","Set1/124b.jpg","78","image-keyboard-response","376","318081","0.0-3.0-1.186","","","Update","n","true"
"null","<div style=""font-size:60px;"">+</div>","null","html-keyboard-response","377","318602","0.0-3.0-0.187","","fixation","","",""
"977","Set1/155b.jpg","78","image-keyboard-response","378","319585","0.0-3.0-1.187","","","Update","n","true"
"null","<div style=""font-size:60px;"">+</div>","null","html-keyboard-response","379","320101","0.0-3.0-0.188","","fixation","","",""
"649","Set1/104b.jpg","79","image-keyboard-response","380","320753","0.0-3.0-1.188","","","Update","o","true"
"null","<div style=""font-size:60px;"">+</div>","null","html-keyboard-response","381","321258","0.0-3.0-0.189","","fixation","","",""
"800","Set1/052a.jpg","78","image-keyboard-response","382","322088","0.0-3.0-1.189","","","Repeat","n","true"
"null","<div style=""font-size:60px;"">+</div>","null","html-keyboard-response","383","322617","0.0-3.0-0.190","","fixation","","",""
"845","Set1/158b.jpg","79","image-keyboard-response","384","323464","0.0-3.0-1.190","","","Update","o","true"
"null","<div style=""font-size:60px;"">+</div>","null","html-keyboard-response","385","323988","0.0-3.0-0.191","","fixation","","",""
"974","Set1/184a.jpg","78","image-keyboard-response","386","324970","0.0-3.0-1.191","","","Set_2_Only","n","true"
"null","<div style=""font-size:60px;"">+</div>","null","html-keyboard-response","387","325488","0.0-3.0-0.192","","fixation","","",""
"671","Set1/052a.jpg","79","image-keyboard-response","388","326163","0.0-3.0-1.192","","","Repeat","o","true"
"null","<div style=""font-size:60px;"">+</div>","null","html-keyboard-response","389","326676","0.0-3.0-0.193","","fixation","","",""
"943","Set1/192a.jpg","78","image-keyboard-response","390","327626","0.0-3.0-1.193","","","Set_2_Only","n","true"
"null","<div style=""font-size:60px;"">+</div>","null","html-keyboard-response","391","328129","0.0-3.0-0.194","","fixation","","",""
"743","Set1/155b.jpg","79","image-keyboard-response","392","328880","0.0-3.0-1.194","","","Update","o","true"
"null","<div style=""font-size:60px;"">+</div>","null","html-keyboard-response","393","329410","0.0-3.0-0.195","","fixation","","",""
"623","Set1/070a.jpg","79","image-keyboard-response","394","330042","0.0-3.0-1.195","","","Repeat","o","true"
"null","<div style=""font-size:60px;"">+</div>","null","html-keyboard-response","395","330552","0.0-3.0-0.196","","fixation","","",""
"1347","Set1/048a.jpg","78","image-keyboard-response","396","331930","0.0-3.0-1.196","","","Repeat","n","true"
"null","<div style=""font-size:60px;"">+</div>","null","html-keyboard-response","397","332458","0.0-3.0-0.197","","fixation","","",""
"1075","Set1/122b.jpg","79","image-keyboard-response","398","333539","0.0-3.0-1.197","","","Update","n","false"
"null","<div style=""font-size:60px;"">+</div>","null","html-keyboard-response","399","334051","0.0-3.0-0.198","","fixation","","",""
"719","Set1/156b.jpg","79","image-keyboard-response","400","334778","0.0-3.0-1.198","","","Update","n","false"
"null","<div style=""font-size:60px;"">+</div>","null","html-keyboard-response","401","335290","0.0-3.0-0.199","","fixation","","",""
"1170","Set1/097b.jpg","78","image-keyboard-response","402","336466","0.0-3.0-1.199","","","Update","n","true"
"null","<div style=""font-size:60px;"">+</div>","null","html-keyboard-response","403","336990","0.0-3.0-0.200","","fixation","","",""
"911","Set1/118b.jpg","78","image-keyboard-response","404","337904","0.0-3.0-1.200","","","Update","n","true"
"null","<div style=""font-size:60px;"">+</div>","null","html-keyboard-response","405","338423","0.0-3.0-0.201","","fixation","","",""
"757","Set1/183a.jpg","78","image-keyboard-response","406","339185","0.0-3.0-1.201","","","Set_2_Only","o","false"
"null","<div style=""font-size:60px;"">+</div>","null","html-keyboard-response","407","339709","0.0-3.0-0.202","","fixation","","",""
"1485","Set1/107b.jpg","79","image-keyboard-response","408","341200","0.0-3.0-1.202","","","Update","n","false"
"null","<div style=""font-size:60px;"">+</div>","null","html-keyboard-response","409","341725","0.0-3.0-0.203","","fixation","","",""
"651","Set1/048a.jpg","79","image-keyboard-response","410","342385","0.0-3.0-1.203","","","Repeat","o","true"
"null","<div style=""font-size:60px;"">+</div>","null","html-keyboard-response","411","342897","0.0-3.0-0.204","","fixation","","",""
"753","Set1/116b.jpg","79","image-keyboard-response","412","343657","0.0-3.0-1.204","","","Update","o","true"
"null","<div style=""font-size:60px;"">+</div>","null","html-keyboard-response","413","344179","0.0-3.0-0.205","","fixation","","",""
"1000","Set1/174a.jpg","78","image-keyboard-response","414","345185","0.0-3.0-1.205","","","Set_2_Only","n","true"
"null","<div style=""font-size:60px;"">+</div>","null","html-keyboard-response","415","345694","0.0-3.0-0.206","","fixation","","",""
"1161","Set1/190a.jpg","78","image-keyboard-response","416","346857","0.0-3.0-1.206","","","Set_2_Only","n","true"
"null","<div style=""font-size:60px;"">+</div>","null","html-keyboard-response","417","347367","0.0-3.0-0.207","","fixation","","",""
"762","Set1/056a.jpg","79","image-keyboard-response","418","348137","0.0-3.0-1.207","","","Repeat","o","true"
"null","<div style=""font-size:60px;"">+</div>","null","html-keyboard-response","419","348647","0.0-3.0-0.208","","fixation","","",""
"1066","Set1/085a.jpg","79","image-keyboard-response","420","349745","0.0-3.0-1.208","","","Repeat","n","false"
"null","<div style=""font-size:60px;"">+</div>","null","html-keyboard-response","421","350258","0.0-3.0-0.209","","fixation","","",""
"711","Set1/182a.jpg","79","image-keyboard-response","422","350978","0.0-3.0-1.209","","","Set_2_Only","o","true"
"null","<div style=""font-size:60px;"">+</div>","null","html-keyboard-response","423","351493","0.0-3.0-0.210","","fixation","","",""
"1190","Set1/163a.jpg","78","image-keyboard-response","424","352688","0.0-3.0-1.210","","","Set_2_Only","n","true"
"null","<div style=""font-size:60px;"">+</div>","null","html-keyboard-response","425","353196","0.0-3.0-0.211","","fixation","","",""
"1183","Set1/189a.jpg","78","image-keyboard-response","426","354385","0.0-3.0-1.211","","","Set_2_Only","n","true"
"null","<div style=""font-size:60px;"">+</div>","null","html-keyboard-response","427","354899","0.0-3.0-0.212","","fixation","","",""
"853","Set1/097b.jpg","79","image-keyboard-response","428","355762","0.0-3.0-1.212","","","Update","o","true"
"null","<div style=""font-size:60px;"">+</div>","null","html-keyboard-response","429","356290","0.0-3.0-0.213","","fixation","","",""
"662","Set1/113b.jpg","79","image-keyboard-response","430","356961","0.0-3.0-1.213","","","Update","o","true"
"null","<div style=""font-size:60px;"">+</div>","null","html-keyboard-response","431","357462","0.0-3.0-0.214","","fixation","","",""
"1180","Set1/174a.jpg","79","image-keyboard-response","432","358649","0.0-3.0-1.214","","","Set_2_Only","o","true"
"null","<div style=""font-size:60px;"">+</div>","null","html-keyboard-response","433","359165","0.0-3.0-0.215","","fixation","","",""
"1354","Set1/115b.jpg","79","image-keyboard-response","434","360521","0.0-3.0-1.215","","","Update","n","false"
"null","<div style=""font-size:60px;"">+</div>","null","html-keyboard-response","435","361041","0.0-3.0-0.216","","fixation","","",""
"776","Set1/124b.jpg","79","image-keyboard-response","436","361824","0.0-3.0-1.216","","","Update","o","true"
"null","<div style=""font-size:60px;"">+</div>","null","html-keyboard-response","437","362337","0.0-3.0-0.217","","fixation","","",""
"1113","Set1/186a.jpg","78","image-keyboard-response","438","363457","0.0-3.0-1.217","","","Set_2_Only","n","true"
"null","<div style=""font-size:60px;"">+</div>","null","html-keyboard-response","439","363962","0.0-3.0-0.218","","fixation","","",""
"1747","Set1/169a.jpg","78","image-keyboard-response","440","365712","0.0-3.0-1.218","","","Set_2_Only","n","true"
"null","<div style=""font-size:60px;"">+</div>","null","html-keyboard-response","441","366227","0.0-3.0-0.219","","fixation","","",""
"919","Set1/192a.jpg","79","image-keyboard-response","442","367153","0.0-3.0-1.219","","","Set_2_Only","o","true"
"null","<div style=""font-size:60px;"">+</div>","null","html-keyboard-response","443","367678","0.0-3.0-0.220","","fixation","","",""
"844","Set1/163a.jpg","79","image-keyboard-response","444","368529","0.0-3.0-1.220","","","Set_2_Only","o","true"
"null","<div style=""font-size:60px;"">+</div>","null","html-keyboard-response","445","369051","0.0-3.0-0.221","","fixation","","",""
"666","Set1/118b.jpg","79","image-keyboard-response","446","369721","0.0-3.0-1.221","","","Update","o","true"
"null","<div style=""font-size:60px;"">+</div>","null","html-keyboard-response","447","370241","0.0-3.0-0.222","","fixation","","",""
"712","Set1/107b.jpg","79","image-keyboard-response","448","370961","0.0-3.0-1.222","","","Update","o","true"
"null","<div style=""font-size:60px;"">+</div>","null","html-keyboard-response","449","371492","0.0-3.0-0.223","","fixation","","",""
"931","Set1/062a.jpg","79","image-keyboard-response","450","372449","0.0-3.0-1.223","","","Repeat","n","false"
"null","<div style=""font-size:60px;"">+</div>","null","html-keyboard-response","451","372965","0.0-3.0-0.224","","fixation","","",""
"807","Set1/156b.jpg","79","image-keyboard-response","452","373777","0.0-3.0-1.224","","","Update","o","true"
"null","<div style=""font-size:60px;"">+</div>","null","html-keyboard-response","453","374286","0.0-3.0-0.225","","fixation","","",""
"906","Set1/186a.jpg","79","image-keyboard-response","454","375195","0.0-3.0-1.225","","","Set_2_Only","o","true"
"null","<div style=""font-size:60px;"">+</div>","null","html-keyboard-response","455","375719","0.0-3.0-0.226","","fixation","","",""
"694","Set1/045a.jpg","79","image-keyboard-response","456","376417","0.0-3.0-1.226","","","Repeat","o","true"
"null","<div style=""font-size:60px;"">+</div>","null","html-keyboard-response","457","376925","0.0-3.0-0.227","","fixation","","",""
"757","Set1/057a.jpg","79","image-keyboard-response","458","377689","0.0-3.0-1.227","","","Repeat","o","true"
"null","<div style=""font-size:60px;"">+</div>","null","html-keyboard-response","459","378207","0.0-3.0-0.228","","fixation","","",""
"722","Set1/184a.jpg","79","image-keyboard-response","460","378937","0.0-3.0-1.228","","","Set_2_Only","o","true"
"null","<div style=""font-size:60px;"">+</div>","null","html-keyboard-response","461","379462","0.0-3.0-0.229","","fixation","","",""
"741","Set1/165a.jpg","79","image-keyboard-response","462","380210","0.0-3.0-1.229","","","Set_2_Only","o","true"
"null","<div style=""font-size:60px;"">+</div>","null","html-keyboard-response","463","380739","0.0-3.0-0.230","","fixation","","",""
"654","Set1/062a.jpg","79","image-keyboard-response","464","381401","0.0-3.0-1.230","","","Repeat","o","true"
"null","<div style=""font-size:60px;"">+</div>","null","html-keyboard-response","465","381923","0.0-3.0-0.231","","fixation","","",""
"791","Set1/152b.jpg","79","image-keyboard-response","466","382721","0.0-3.0-1.231","","","Update","o","true"
"null","<div style=""font-size:60px;"">+</div>","null","html-keyboard-response","467","383256","0.0-3.0-0.232","","fixation","","",""
"777","Set1/053a.jpg","79","image-keyboard-response","468","384041","0.0-3.0-1.232","","","Repeat","o","true"
"null","<div style=""font-size:60px;"">+</div>","null","html-keyboard-response","469","384557","0.0-3.0-0.233","","fixation","","",""
"696","Set1/190a.jpg","79","image-keyboard-response","470","385256","0.0-3.0-1.233","","","Set_2_Only","o","true"
"null","<div style=""font-size:60px;"">+</div>","null","html-keyboard-response","471","385772","0.0-3.0-0.234","","fixation","","",""
"726","Set1/082a.jpg","79","image-keyboard-response","472","386505","0.0-3.0-1.234","","","Repeat","o","true"
"null","<div style=""font-size:60px;"">+</div>","null","html-keyboard-response","473","387021","0.0-3.0-0.235","","fixation","","",""
"737","Set1/085a.jpg","79","image-keyboard-response","474","387761","0.0-3.0-1.235","","","Repeat","o","true"
"null","<div style=""font-size:60px;"">+</div>","null","html-keyboard-response","475","388273","0.0-3.0-0.236","","fixation","","",""
"767","Set1/169a.jpg","79","image-keyboard-response","476","389041","0.0-3.0-1.236","","","Set_2_Only","o","true"
"null","<div style=""font-size:60px;"">+</div>","null","html-keyboard-response","477","389569","0.0-3.0-0.237","","fixation","","",""
"582","Set1/122b.jpg","79","image-keyboard-response","478","390161","0.0-3.0-1.237","","","Update","o","true"
"null","<div style=""font-size:60px;"">+</div>","null","html-keyboard-response","479","390678","0.0-3.0-0.238","","fixation","","",""
"799","Set1/189a.jpg","79","image-keyboard-response","480","391481","0.0-3.0-1.238","","","Set_2_Only","o","true"
"null","<div style=""font-size:60px;"">+</div>","null","html-keyboard-response","481","392006","0.0-3.0-0.239","","fixation","","",""
"651","Set1/115b.jpg","79","image-keyboard-response","482","392665","0.0-3.0-1.239","","","Update","o","true"
"null","<div style=""font-size:60px;"">+</div>","null","html-keyboard-response","483","393179","0.0-3.0-0.240","","fixation","","",""
"2339","Set1/081a.jpg","78","image-keyboard-response","484","395545","0.0-3.0-1.240","","","Repeat","n","true"
"null","<div style=""font-size:60px;"">+</div>","null","html-keyboard-response","485","396068","0.0-3.0-0.241","","fixation","","",""
"1129","Set1/166a.jpg","78","image-keyboard-response","486","397201","0.0-3.0-1.241","","","Set_2_Only","n","true"
"null","<div style=""font-size:60px;"">+</div>","null","html-keyboard-response","487","397711","0.0-3.0-0.242","","fixation","","",""
"819","Set1/111b.jpg","78","image-keyboard-response","488","398536","0.0-3.0-1.242","","","Update","n","true"
"null","<div style=""font-size:60px;"">+</div>","null","html-keyboard-response","489","399057","0.0-3.0-0.243","","fixation","","",""
"null","Set1/063a.jpg","null","image-keyboard-response","490","409103","0.0-3.0-1.243","","","Repeat","n","false"
"null","<div style=""font-size:60px;"">+</div>","null","html-keyboard-response","491","409619","0.0-3.0-0.244","","fixation","","",""
"1288","Set1/127b.jpg","79","image-keyboard-response","492","410913","0.0-3.0-1.244","","","Update","n","false"
"null","<div style=""font-size:60px;"">+</div>","null","html-keyboard-response","493","411432","0.0-3.0-0.245","","fixation","","",""
"982","Set1/077a.jpg","79","image-keyboard-response","494","412441","0.0-3.0-1.245","","","Repeat","n","false"
"null","<div style=""font-size:60px;"">+</div>","null","html-keyboard-response","495","412963","0.0-3.0-0.246","","fixation","","",""
"1094","Set1/117b.jpg","78","image-keyboard-response","496","414063","0.0-3.0-1.246","","","Update","n","true"
"null","<div style=""font-size:60px;"">+</div>","null","html-keyboard-response","497","414588","0.0-3.0-0.247","","fixation","","",""
"1343","Set1/110b.jpg","79","image-keyboard-response","498","415937","0.0-3.0-1.247","","","Update","n","false"
"null","<div style=""font-size:60px;"">+</div>","null","html-keyboard-response","499","416463","0.0-3.0-0.248","","fixation","","",""
"1163","Set1/137b.jpg","78","image-keyboard-response","500","417632","0.0-3.0-1.248","","","Update","n","true"
"null","<div style=""font-size:60px;"">+</div>","null","html-keyboard-response","501","418135","0.0-3.0-0.249","","fixation","","",""
"1779","Set1/146b.jpg","79","image-keyboard-response","502","419921","0.0-3.0-1.249","","","Update","n","false"
"null","<div style=""font-size:60px;"">+</div>","null","html-keyboard-response","503","420433","0.0-3.0-0.250","","fixation","","",""
"1153","Set1/164a.jpg","78","image-keyboard-response","504","421593","0.0-3.0-1.250","","","Set_2_Only","n","true"
"null","<div style=""font-size:60px;"">+</div>","null","html-keyboard-response","505","422119","0.0-3.0-0.251","","fixation","","",""
"1250","Set1/132b.jpg","79","image-keyboard-response","506","423376","0.0-3.0-1.251","","","Update","n","false"
"null","<div style=""font-size:60px;"">+</div>","null","html-keyboard-response","507","423879","0.0-3.0-0.252","","fixation","","",""
"1385","Set1/136b.jpg","79","image-keyboard-response","508","425273","0.0-3.0-1.252","","","Update","n","false"
"null","<div style=""font-size:60px;"">+</div>","null","html-keyboard-response","509","425802","0.0-3.0-0.253","","fixation","","",""
"1111","Set1/072a.jpg","79","image-keyboard-response","510","426944","0.0-3.0-1.253","","","Repeat","n","false"
"null","<div style=""font-size:60px;"">+</div>","null","html-keyboard-response","511","427473","0.0-3.0-0.254","","fixation","","",""
"1221","Set1/049a.jpg","78","image-keyboard-response","512","428721","0.0-3.0-1.254","","","Repeat","n","true"
"null","<div style=""font-size:60px;"">+</div>","null","html-keyboard-response","513","429240","0.0-3.0-0.255","","fixation","","",""
"970","Set1/133b.jpg","78","image-keyboard-response","514","430216","0.0-3.0-1.255","","","Update","n","true"
"null","<div style=""font-size:60px;"">+</div>","null","html-keyboard-response","515","430741","0.0-3.0-0.256","","fixation","","",""
"1118","Set1/109b.jpg","78","image-keyboard-response","516","431865","0.0-3.0-1.256","","","Update","n","true"
"null","<div style=""font-size:60px;"">+</div>","null","html-keyboard-response","517","432380","0.0-3.0-0.257","","fixation","","",""
"1702","Set1/121b.jpg","78","image-keyboard-response","518","434089","0.0-3.0-1.257","","","Update","n","true"
"null","<div style=""font-size:60px;"">+</div>","null","html-keyboard-response","519","434616","0.0-3.0-0.258","","fixation","","",""
"784","Set1/111b.jpg","79","image-keyboard-response","520","435409","0.0-3.0-1.258","","","Update","o","true"
"null","<div style=""font-size:60px;"">+</div>","null","html-keyboard-response","521","435923","0.0-3.0-0.259","","fixation","","",""
"1146","Set1/129b.jpg","78","image-keyboard-response","522","437073","0.0-3.0-1.259","","","Update","n","true"
"null","<div style=""font-size:60px;"">+</div>","null","html-keyboard-response","523","437601","0.0-3.0-0.260","","fixation","","",""
"1153","Set1/088a.jpg","79","image-keyboard-response","524","438785","0.0-3.0-1.260","","","Repeat","n","false"
"null","<div style=""font-size:60px;"">+</div>","null","html-keyboard-response","525","439305","0.0-3.0-0.261","","fixation","","",""
"804","Set1/136b.jpg","79","image-keyboard-response","526","440112","0.0-3.0-1.261","","","Update","o","true"
"null","<div style=""font-size:60px;"">+</div>","null","html-keyboard-response","527","440632","0.0-3.0-0.262","","fixation","","",""
"717","Set1/088a.jpg","79","image-keyboard-response","528","441352","0.0-3.0-1.262","","","Repeat","o","true"
"null","<div style=""font-size:60px;"">+</div>","null","html-keyboard-response","529","441882","0.0-3.0-0.263","","fixation","","",""
"881","Set1/125b.jpg","79","image-keyboard-response","530","442769","0.0-3.0-1.263","","","Update","n","false"
"null","<div style=""font-size:60px;"">+</div>","null","html-keyboard-response","531","443288","0.0-3.0-0.264","","fixation","","",""
"1548","Set1/054a.jpg","79","image-keyboard-response","532","444855","0.0-3.0-1.264","","","Repeat","n","false"
"null","<div style=""font-size:60px;"">+</div>","null","html-keyboard-response","533","445367","0.0-3.0-0.265","","fixation","","",""
"1228","Set1/099b.jpg","79","image-keyboard-response","534","446599","0.0-3.0-1.265","","","Update","n","false"
"null","<div style=""font-size:60px;"">+</div>","null","html-keyboard-response","535","447106","0.0-3.0-0.266","","fixation","","",""
"717","Set1/166a.jpg","79","image-keyboard-response","536","447824","0.0-3.0-1.266","","","Set_2_Only","o","true"
"null","<div style=""font-size:60px;"">+</div>","null","html-keyboard-response","537","448351","0.0-3.0-0.267","","fixation","","",""
"960","Set1/093a.jpg","79","image-keyboard-response","538","449338","0.0-3.0-1.267","","","Repeat","n","false"
"null","<div style=""font-size:60px;"">+</div>","null","html-keyboard-response","539","449852","0.0-3.0-0.268","","fixation","","",""
"790","Set1/060a.jpg","79","image-keyboard-response","540","450663","0.0-3.0-1.268","","","Repeat","n","false"
"null","<div style=""font-size:60px;"">+</div>","null","html-keyboard-response","541","451181","0.0-3.0-0.269","","fixation","","",""
"708","Set1/110b.jpg","79","image-keyboard-response","542","451897","0.0-3.0-1.269","","","Update","o","true"
"null","<div style=""font-size:60px;"">+</div>","null","html-keyboard-response","543","452406","0.0-3.0-0.270","","fixation","","",""
"763","Set1/093a.jpg","79","image-keyboard-response","544","453177","0.0-3.0-1.270","","","Repeat","o","true"
"null","<div style=""font-size:60px;"">+</div>","null","html-keyboard-response","545","453681","0.0-3.0-0.271","","fixation","","",""
"1233","Set1/180a.jpg","78","image-keyboard-response","546","454921","0.0-3.0-1.271","","","Set_2_Only","n","true"
"null","<div style=""font-size:60px;"">+</div>","null","html-keyboard-response","547","455430","0.0-3.0-0.272","","fixation","","",""
"2144","Set1/120b.jpg","78","image-keyboard-response","548","457577","0.0-3.0-1.272","","","Update","n","true"
"null","<div style=""font-size:60px;"">+</div>","null","html-keyboard-response","549","458102","0.0-3.0-0.273","","fixation","","",""
"888","Set1/178a.jpg","78","image-keyboard-response","550","458992","0.0-3.0-1.273","","","Set_2_Only","n","true"
"null","<div style=""font-size:60px;"">+</div>","null","html-keyboard-response","551","459509","0.0-3.0-0.274","","fixation","","",""
"1178","Set1/079a.jpg","79","image-keyboard-response","552","460713","0.0-3.0-1.274","","","Repeat","n","false"
"null","<div style=""font-size:60px;"">+</div>","null","html-keyboard-response","553","461228","0.0-3.0-0.275","","fixation","","",""
"1966","Set1/151b.jpg","79","image-keyboard-response","554","463200","0.0-3.0-1.275","","","Update","n","false"
"null","<div style=""font-size:60px;"">+</div>","null","html-keyboard-response","555","463729","0.0-3.0-0.276","","fixation","","",""
"1025","Set1/181a.jpg","78","image-keyboard-response","556","464760","0.0-3.0-1.276","","","Set_2_Only","n","true"
"null","<div style=""font-size:60px;"">+</div>","null","html-keyboard-response","557","465287","0.0-3.0-0.277","","fixation","","",""
"913","Set1/099b.jpg","79","image-keyboard-response","558","466203","0.0-3.0-1.277","","","Update","o","true"
"null","<div style=""font-size:60px;"">+</div>","null","html-keyboard-response","559","466722","0.0-3.0-0.278","","fixation","","",""
"936","Set1/102b.jpg","78","image-keyboard-response","560","467664","0.0-3.0-1.278","","","Update","n","true"
"null","<div style=""font-size:60px;"">+</div>","null","html-keyboard-response","561","468182","0.0-3.0-0.279","","fixation","","",""
"999","Set1/167a.jpg","78","image-keyboard-response","562","469185","0.0-3.0-1.279","","","Set_2_Only","n","true"
"null","<div style=""font-size:60px;"">+</div>","null","html-keyboard-response","563","469705","0.0-3.0-0.280","","fixation","","",""
"782","Set1/102b.jpg","79","image-keyboard-response","564","470490","0.0-3.0-1.280","","","Update","o","true"
"null","<div style=""font-size:60px;"">+</div>","null","html-keyboard-response","565","471007","0.0-3.0-0.281","","fixation","","",""
"915","Set1/092a.jpg","79","image-keyboard-response","566","471943","0.0-3.0-1.281","","","Repeat","n","false"
"null","<div style=""font-size:60px;"">+</div>","null","html-keyboard-response","567","472468","0.0-3.0-0.282","","fixation","","",""
"717","Set1/081a.jpg","79","image-keyboard-response","568","473193","0.0-3.0-1.282","","","Repeat","o","true"
"null","<div style=""font-size:60px;"">+</div>","null","html-keyboard-response","569","473718","0.0-3.0-0.283","","fixation","","",""
"757","Set1/120b.jpg","79","image-keyboard-response","570","474479","0.0-3.0-1.283","","","Update","o","true"
"null","<div style=""font-size:60px;"">+</div>","null","html-keyboard-response","571","475004","0.0-3.0-0.284","","fixation","","",""
"1038","Set1/076a.jpg","78","image-keyboard-response","572","476073","0.0-3.0-1.284","","","Repeat","n","true"
"null","<div style=""font-size:60px;"">+</div>","null","html-keyboard-response","573","476583","0.0-3.0-0.285","","fixation","","",""
"1938","Set1/033a.jpg","79","image-keyboard-response","574","478552","0.0-3.0-1.285","","","Repeat","n","false"
"null","<div style=""font-size:60px;"">+</div>","null","html-keyboard-response","575","479067","0.0-3.0-0.286","","fixation","","",""
"660","Set1/125b.jpg","79","image-keyboard-response","576","479736","0.0-3.0-1.286","","","Update","o","true"
"null","<div style=""font-size:60px;"">+</div>","null","html-keyboard-response","577","480240","0.0-3.0-0.287","","fixation","","",""
"624","Set1/127b.jpg","79","image-keyboard-response","578","480871","0.0-3.0-1.287","","","Update","o","true"
"null","<div style=""font-size:60px;"">+</div>","null","html-keyboard-response","579","481380","0.0-3.0-0.288","","fixation","","",""
"712","Set1/092a.jpg","79","image-keyboard-response","580","482096","0.0-3.0-1.288","","","Repeat","o","true"
"null","<div style=""font-size:60px;"">+</div>","null","html-keyboard-response","581","482606","0.0-3.0-0.289","","fixation","","",""
"698","Set1/181a.jpg","79","image-keyboard-response","582","483313","0.0-3.0-1.289","","","Set_2_Only","o","true"
"null","<div style=""font-size:60px;"">+</div>","null","html-keyboard-response","583","483818","0.0-3.0-0.290","","fixation","","",""
"1027","Set1/086a.jpg","78","image-keyboard-response","584","484873","0.0-3.0-1.290","","","Repeat","n","true"
"null","<div style=""font-size:60px;"">+</div>","null","html-keyboard-response","585","485381","0.0-3.0-0.291","","fixation","","",""
"791","Set1/109b.jpg","79","image-keyboard-response","586","486177","0.0-3.0-1.291","","","Update","o","true"
"null","<div style=""font-size:60px;"">+</div>","null","html-keyboard-response","587","486694","0.0-3.0-0.292","","fixation","","",""
"1386","Set1/167a.jpg","79","image-keyboard-response","588","488089","0.0-3.0-1.292","","","Set_2_Only","o","true"
"null","<div style=""font-size:60px;"">+</div>","null","html-keyboard-response","589","488616","0.0-3.0-0.293","","fixation","","",""
"785","Set1/129b.jpg","79","image-keyboard-response","590","489408","0.0-3.0-1.293","","","Update","o","true"
"null","<div style=""font-size:60px;"">+</div>","null","html-keyboard-response","591","489927","0.0-3.0-0.294","","fixation","","",""
"766","Set1/180a.jpg","79","image-keyboard-response","592","490695","0.0-3.0-1.294","","","Set_2_Only","o","true"
"null","<div style=""font-size:60px;"">+</div>","null","html-keyboard-response","593","491225","0.0-3.0-0.295","","fixation","","",""
"654","Set1/121b.jpg","79","image-keyboard-response","594","491888","0.0-3.0-1.295","","","Update","o","true"
"null","<div style=""font-size:60px;"">+</div>","null","html-keyboard-response","595","492399","0.0-3.0-0.296","","fixation","","",""
"742","Set1/178a.jpg","79","image-keyboard-response","596","493145","0.0-3.0-1.296","","","Set_2_Only","o","true"
"null","<div style=""font-size:60px;"">+</div>","null","html-keyboard-response","597","493663","0.0-3.0-0.297","","fixation","","",""
"752","Set1/094a.jpg","79","image-keyboard-response","598","494447","0.0-3.0-1.297","","","Repeat","n","false"
"null","<div style=""font-size:60px;"">+</div>","null","html-keyboard-response","599","494961","0.0-3.0-0.298","","fixation","","",""
"782","Set1/137b.jpg","79","image-keyboard-response","600","495751","0.0-3.0-1.298","","","Update","o","true"
"null","<div style=""font-size:60px;"">+</div>","null","html-keyboard-response","601","496258","0.0-3.0-0.299","","fixation","","",""
"787","Set1/060a.jpg","79","image-keyboard-response","602","497049","0.0-3.0-1.299","","","Repeat","o","true"
"null","<div style=""font-size:60px;"">+</div>","null","html-keyboard-response","603","497554","0.0-3.0-0.300","","fixation","","",""
"718","Set1/133b.jpg","79","image-keyboard-response","604","498280","0.0-3.0-1.300","","","Update","o","true"
"null","<div style=""font-size:60px;"">+</div>","null","html-keyboard-response","605","498789","0.0-3.0-0.301","","fixation","","",""
"706","Set1/164a.jpg","79","image-keyboard-response","606","499505","0.0-3.0-1.301","","","Set_2_Only","o","true"
"null","<div style=""font-size:60px;"">+</div>","null","html-keyboard-response","607","500025","0.0-3.0-0.302","","fixation","","",""
"679","Set1/054a.jpg","79","image-keyboard-response","608","500711","0.0-3.0-1.302","","","Repeat","o","true"
"null","<div style=""font-size:60px;"">+</div>","null","html-keyboard-response","609","501228","0.0-3.0-0.303","","fixation","","",""
"926","Set1/117b.jpg","79","image-keyboard-response","610","502161","0.0-3.0-1.303","","","Update","o","true"
"null","<div style=""font-size:60px;"">+</div>","null","html-keyboard-response","611","502681","0.0-3.0-0.304","","fixation","","",""
"862","Set1/049a.jpg","79","image-keyboard-response","612","503552","0.0-3.0-1.304","","","Repeat","o","true"
"null","<div style=""font-size:60px;"">+</div>","null","html-keyboard-response","613","504055","0.0-3.0-0.305","","fixation","","",""
"886","Set1/132b.jpg","79","image-keyboard-response","614","504944","0.0-3.0-1.305","","","Update","o","true"
"null","<div style=""font-size:60px;"">+</div>","null","html-keyboard-response","615","505464","0.0-3.0-0.306","","fixation","","",""
"876","Set1/151b.jpg","79","image-keyboard-response","616","506344","0.0-3.0-1.306","","","Update","o","true"
"null","<div style=""font-size:60px;"">+</div>","null","html-keyboard-response","617","506871","0.0-3.0-0.307","","fixation","","",""
"672","Set1/086a.jpg","79","image-keyboard-response","618","507544","0.0-3.0-1.307","","","Repeat","o","true"
"null","<div style=""font-size:60px;"">+</div>","null","html-keyboard-response","619","508056","0.0-3.0-0.308","","fixation","","",""
"1022","Set1/160b.jpg","78","image-keyboard-response","620","509080","0.0-3.0-1.308","","","Update","n","true"
"null","<div style=""font-size:60px;"">+</div>","null","html-keyboard-response","621","509590","0.0-3.0-0.309","","fixation","","",""
"754","Set1/094a.jpg","79","image-keyboard-response","622","510351","0.0-3.0-1.309","","","Repeat","o","true"
"null","<div style=""font-size:60px;"">+</div>","null","html-keyboard-response","623","510856","0.0-3.0-0.310","","fixation","","",""
"886","Set1/146b.jpg","79","image-keyboard-response","624","511753","0.0-3.0-1.310","","","Update","o","true"
"null","<div style=""font-size:60px;"">+</div>","null","html-keyboard-response","625","512272","0.0-3.0-0.311","","fixation","","",""
"1068","Set1/160b.jpg","79","image-keyboard-response","626","513343","0.0-3.0-1.311","","","Update","o","true"
"null","<div style=""font-size:60px;"">+</div>","null","html-keyboard-response","627","513856","0.0-3.0-0.312","","fixation","","",""
"896","Set1/072a.jpg","79","image-keyboard-response","628","514761","0.0-3.0-1.312","","","Repeat","o","true"
"null","<div style=""font-size:60px;"">+</div>","null","html-keyboard-response","629","515294","0.0-3.0-0.313","","fixation","","",""
"667","Set1/076a.jpg","79","image-keyboard-response","630","515968","0.0-3.0-1.313","","","Repeat","o","true"
"null","<div style=""font-size:60px;"">+</div>","null","html-keyboard-response","631","516489","0.0-3.0-0.314","","fixation","","",""
"680","Set1/079a.jpg","79","image-keyboard-response","632","517176","0.0-3.0-1.314","","","Repeat","o","true"
"null","<div style=""font-size:60px;"">+</div>","null","html-keyboard-response","633","517684","0.0-3.0-0.315","","fixation","","",""
"729","Set1/033a.jpg","79","image-keyboard-response","634","518423","0.0-3.0-1.315","","","Repeat","o","true"
"null","<div style=""font-size:60px;"">+</div>","null","html-keyboard-response","635","518935","0.0-3.0-0.316","","fixation","","",""
"1209","Set1/051a.jpg","78","image-keyboard-response","636","520176","0.0-3.0-1.316","","","Repeat","n","true"
"null","<div style=""font-size:60px;"">+</div>","null","html-keyboard-response","637","520701","0.0-3.0-0.317","","fixation","","",""
"697","Set1/077a.jpg","79","image-keyboard-response","638","521406","0.0-3.0-1.317","","","Repeat","o","true"
"null","<div style=""font-size:60px;"">+</div>","null","html-keyboard-response","639","521936","0.0-3.0-0.318","","fixation","","",""
"876","Set1/051a.jpg","79","image-keyboard-response","640","522816","0.0-3.0-1.318","","","Repeat","o","true"
"null","<div style=""font-size:60px;"">+</div>","null","html-keyboard-response","641","523327","0.0-3.0-0.319","","fixation","","",""
"658","Set1/063a.jpg","79","image-keyboard-response","642","523992","0.0-3.0-1.319","","","Repeat","o","true"
