"rt","stimulus","key_press","trial_type","trial_index","time_elapsed","internal_node_id","responses","test_part","stim_type","correct_response","correct"
"2256","Press any key to begin.","78","html-keyboard-response","0","2266","0.0-0.0","","","","",""
"2234","","","survey-text","1","4503","0.0-1.0","{""Q0"":""Set1_128714"",""Q1"":""Set1_128714""}","","","",""
"1352","<p>In this experiment you will see a series of everyday objects presented one at a time at the center of the screen. Each image will be presented twice. </p><p>The first time you see the image, press the N key to indicate that it is a NEW image. The second time you see the image, press the O key to indicate that it is an OLD image.</p><div style='width: 700px;'></div><p>Press any key to begin.</p>","78","html-keyboard-response","2","5856","0.0-2.0","","","","",""
"null","<div style=""font-size:60px;"">+</div>","null","html-keyboard-response","3","8366","0.0-3.0-0.0","","fixation","","",""
"805","Set1/063a.jpg","78","image-keyboard-response","4","9173","0.0-3.0-1.0","","","Repeat","n","true"
"null","<div style=""font-size:60px;"">+</div>","null","html-keyboard-response","5","9676","0.0-3.0-0.1","","fixation","","",""
"845","Set1/064a.jpg","78","image-keyboard-response","6","10523","0.0-3.0-1.1","","","Repeat","n","true"
"null","<div style=""font-size:60px;"">+</div>","null","html-keyboard-response","7","11027","0.0-3.0-0.2","","fixation","","",""
"830","Set1/047a.jpg","78","image-keyboard-response","8","11858","0.0-3.0-1.2","","","Repeat","n","true"
"null","<div style=""font-size:60px;"">+</div>","null","html-keyboard-response","9","12361","0.0-3.0-0.3","","fixation","","",""
"744","Set1/025a.jpg","78","image-keyboard-response","10","13106","0.0-3.0-1.3","","","Set_1_Only","n","true"
"null","<div style=""font-size:60px;"">+</div>","null","html-keyboard-response","11","13610","0.0-3.0-0.4","","fixation","","",""
"888","Set1/146a.jpg","78","image-keyboard-response","12","14498","0.0-3.0-1.4","","","Update","n","true"
"null","<div style=""font-size:60px;"">+</div>","null","html-keyboard-response","13","15002","0.0-3.0-0.5","","fixation","","",""
"816","Set1/020a.jpg","78","image-keyboard-response","14","15818","0.0-3.0-1.5","","","Set_1_Only","n","true"
"null","<div style=""font-size:60px;"">+</div>","null","html-keyboard-response","15","16319","0.0-3.0-0.6","","fixation","","",""
"796","Set1/120a.jpg","78","image-keyboard-response","16","17115","0.0-3.0-1.6","","","Update","n","true"
"null","<div style=""font-size:60px;"">+</div>","null","html-keyboard-response","17","17617","0.0-3.0-0.7","","fixation","","",""
"817","Set1/148a.jpg","78","image-keyboard-response","18","18434","0.0-3.0-1.7","","","Update","n","true"
"null","<div style=""font-size:60px;"">+</div>","null","html-keyboard-response","19","18937","0.0-3.0-0.8","","fixation","","",""
"753","Set1/028a.jpg","78","image-keyboard-response","20","19691","0.0-3.0-1.8","","","Set_1_Only","n","true"
"null","<div style=""font-size:60px;"">+</div>","null","html-keyboard-response","21","20196","0.0-3.0-0.9","","fixation","","",""
"742","Set1/071a.jpg","78","image-keyboard-response","22","20939","0.0-3.0-1.9","","","Repeat","n","true"
"null","<div style=""font-size:60px;"">+</div>","null","html-keyboard-response","23","21443","0.0-3.0-0.10","","fixation","","",""
"654","Set1/030a.jpg","78","image-keyboard-response","24","22098","0.0-3.0-1.10","","","Set_1_Only","n","true"
"null","<div style=""font-size:60px;"">+</div>","null","html-keyboard-response","25","22603","0.0-3.0-0.11","","fixation","","",""
"1286","Set1/037a.jpg","78","image-keyboard-response","26","23890","0.0-3.0-1.11","","","Repeat","n","true"
"null","<div style=""font-size:60px;"">+</div>","null","html-keyboard-response","27","24392","0.0-3.0-0.12","","fixation","","",""
"2825","Set1/120a.jpg","79","image-keyboard-response","28","27217","0.0-3.0-1.12","","","Update","o","true"
"null","<div style=""font-size:60px;"">+</div>","null","html-keyboard-response","29","27719","0.0-3.0-0.13","","fixation","","",""
"826","Set1/005a.jpg","78","image-keyboard-response","30","28546","0.0-3.0-1.13","","","Set_1_Only","n","true"
"null","<div style=""font-size:60px;"">+</div>","null","html-keyboard-response","31","29050","0.0-3.0-0.14","","fixation","","",""
"679","Set1/079a.jpg","78","image-keyboard-response","32","29729","0.0-3.0-1.14","","","Repeat","n","true"
"null","<div style=""font-size:60px;"">+</div>","null","html-keyboard-response","33","30230","0.0-3.0-0.15","","fixation","","",""
"811","Set1/136a.jpg","78","image-keyboard-response","34","31042","0.0-3.0-1.15","","","Update","n","true"
"null","<div style=""font-size:60px;"">+</div>","null","html-keyboard-response","35","31542","0.0-3.0-0.16","","fixation","","",""
"682","Set1/133a.jpg","78","image-keyboard-response","36","32225","0.0-3.0-1.16","","","Update","n","true"
"null","<div style=""font-size:60px;"">+</div>","null","html-keyboard-response","37","32730","0.0-3.0-0.17","","fixation","","",""
"615","Set1/128a.jpg","78","image-keyboard-response","38","33345","0.0-3.0-1.17","","","Update","n","true"
"null","<div style=""font-size:60px;"">+</div>","null","html-keyboard-response","39","33848","0.0-3.0-0.18","","fixation","","",""
"689","Set1/054a.jpg","78","image-keyboard-response","40","34537","0.0-3.0-1.18","","","Repeat","n","true"
"null","<div style=""font-size:60px;"">+</div>","null","html-keyboard-response","41","35042","0.0-3.0-0.19","","fixation","","",""
"606","Set1/108a.jpg","78","image-keyboard-response","42","35649","0.0-3.0-1.19","","","Update","n","true"
"null","<div style=""font-size:60px;"">+</div>","null","html-keyboard-response","43","36151","0.0-3.0-0.20","","fixation","","",""
"689","Set1/050a.jpg","78","image-keyboard-response","44","36840","0.0-3.0-1.20","","","Repeat","n","true"
"null","<div style=""font-size:60px;"">+</div>","null","html-keyboard-response","45","37341","0.0-3.0-0.21","","fixation","","",""
"675","Set1/140a.jpg","78","image-keyboard-response","46","38017","0.0-3.0-1.21","","","Update","n","true"
"null","<div style=""font-size:60px;"">+</div>","null","html-keyboard-response","47","38517","0.0-3.0-0.22","","fixation","","",""
"707","Set1/051a.jpg","78","image-keyboard-response","48","39225","0.0-3.0-1.22","","","Repeat","n","true"
"null","<div style=""font-size:60px;"">+</div>","null","html-keyboard-response","49","39729","0.0-3.0-0.23","","fixation","","",""
"728","Set1/063a.jpg","79","image-keyboard-response","50","40457","0.0-3.0-1.23","","","Repeat","o","true"
"null","<div style=""font-size:60px;"">+</div>","null","html-keyboard-response","51","40961","0.0-3.0-0.24","","fixation","","",""
"575","Set1/006a.jpg","78","image-keyboard-response","52","41537","0.0-3.0-1.24","","","Set_1_Only","n","true"
"null","<div style=""font-size:60px;"">+</div>","null","html-keyboard-response","53","42041","0.0-3.0-0.25","","fixation","","",""
"583","Set1/158a.jpg","78","image-keyboard-response","54","42625","0.0-3.0-1.25","","","Update","n","true"
"null","<div style=""font-size:60px;"">+</div>","null","html-keyboard-response","55","43128","0.0-3.0-0.26","","fixation","","",""
"970","Set1/020a.jpg","79","image-keyboard-response","56","44099","0.0-3.0-1.26","","","Set_1_Only","o","true"
"null","<div style=""font-size:60px;"">+</div>","null","html-keyboard-response","57","44602","0.0-3.0-0.27","","fixation","","",""
"726","Set1/082a.jpg","78","image-keyboard-response","58","45329","0.0-3.0-1.27","","","Repeat","n","true"
"null","<div style=""font-size:60px;"">+</div>","null","html-keyboard-response","59","45830","0.0-3.0-0.28","","fixation","","",""
"659","Set1/107a.jpg","78","image-keyboard-response","60","46489","0.0-3.0-1.28","","","Update","n","true"
"null","<div style=""font-size:60px;"">+</div>","null","html-keyboard-response","61","46994","0.0-3.0-0.29","","fixation","","",""
"606","Set1/121a.jpg","78","image-keyboard-response","62","47602","0.0-3.0-1.29","","","Update","n","true"
"null","<div style=""font-size:60px;"">+</div>","null","html-keyboard-response","63","48103","0.0-3.0-0.30","","fixation","","",""
"674","Set1/085a.jpg","78","image-keyboard-response","64","48777","0.0-3.0-1.30","","","Repeat","n","true"
"null","<div style=""font-size:60px;"">+</div>","null","html-keyboard-response","65","49278","0.0-3.0-0.31","","fixation","","",""
"835","Set1/136a.jpg","79","image-keyboard-response","66","50113","0.0-3.0-1.31","","","Update","o","true"
"null","<div style=""font-size:60px;"">+</div>","null","html-keyboard-response","67","50614","0.0-3.0-0.32","","fixation","","",""
"650","Set1/049a.jpg","78","image-keyboard-response","68","51265","0.0-3.0-1.32","","","Repeat","n","true"
"null","<div style=""font-size:60px;"">+</div>","null","html-keyboard-response","69","51771","0.0-3.0-0.33","","fixation","","",""
"911","Set1/133a.jpg","79","image-keyboard-response","70","52683","0.0-3.0-1.33","","","Update","o","true"
"null","<div style=""font-size:60px;"">+</div>","null","html-keyboard-response","71","53186","0.0-3.0-0.34","","fixation","","",""
"840","Set1/093a.jpg","78","image-keyboard-response","72","54026","0.0-3.0-1.34","","","Repeat","n","true"
"null","<div style=""font-size:60px;"">+</div>","null","html-keyboard-response","73","54531","0.0-3.0-0.35","","fixation","","",""
"694","Set1/064a.jpg","79","image-keyboard-response","74","55225","0.0-3.0-1.35","","","Repeat","o","true"
"null","<div style=""font-size:60px;"">+</div>","null","html-keyboard-response","75","55727","0.0-3.0-0.36","","fixation","","",""
"625","Set1/005a.jpg","79","image-keyboard-response","76","56353","0.0-3.0-1.36","","","Set_1_Only","o","true"
"null","<div style=""font-size:60px;"">+</div>","null","html-keyboard-response","77","56855","0.0-3.0-0.37","","fixation","","",""
"985","Set1/128a.jpg","79","image-keyboard-response","78","57841","0.0-3.0-1.37","","","Update","o","true"
"null","<div style=""font-size:60px;"">+</div>","null","html-keyboard-response","79","58345","0.0-3.0-0.38","","fixation","","",""
"703","Set1/044a.jpg","78","image-keyboard-response","80","59049","0.0-3.0-1.38","","","Repeat","n","true"
"null","<div style=""font-size:60px;"">+</div>","null","html-keyboard-response","81","59551","0.0-3.0-0.39","","fixation","","",""
"914","Set1/037a.jpg","79","image-keyboard-response","82","60466","0.0-3.0-1.39","","","Repeat","o","true"
"null","<div style=""font-size:60px;"">+</div>","null","html-keyboard-response","83","60967","0.0-3.0-0.40","","fixation","","",""
"658","Set1/088a.jpg","78","image-keyboard-response","84","61625","0.0-3.0-1.40","","","Repeat","n","true"
"null","<div style=""font-size:60px;"">+</div>","null","html-keyboard-response","85","62130","0.0-3.0-0.41","","fixation","","",""
"710","Set1/106a.jpg","78","image-keyboard-response","86","62842","0.0-3.0-1.41","","","Update","n","true"
"null","<div style=""font-size:60px;"">+</div>","null","html-keyboard-response","87","63346","0.0-3.0-0.42","","fixation","","",""
"1048","Set1/031a.jpg","78","image-keyboard-response","88","64394","0.0-3.0-1.42","","","Set_1_Only","n","true"
"null","<div style=""font-size:60px;"">+</div>","null","html-keyboard-response","89","64897","0.0-3.0-0.43","","fixation","","",""
"800","Set1/160a.jpg","78","image-keyboard-response","90","65698","0.0-3.0-1.43","","","Update","n","true"
"null","<div style=""font-size:60px;"">+</div>","null","html-keyboard-response","91","66200","0.0-3.0-0.44","","fixation","","",""
"666","Set1/025a.jpg","79","image-keyboard-response","92","66867","0.0-3.0-1.44","","","Set_1_Only","o","true"
"null","<div style=""font-size:60px;"">+</div>","null","html-keyboard-response","93","67367","0.0-3.0-0.45","","fixation","","",""
"937","Set1/088a.jpg","79","image-keyboard-response","94","68305","0.0-3.0-1.45","","","Repeat","o","true"
"null","<div style=""font-size:60px;"">+</div>","null","html-keyboard-response","95","68808","0.0-3.0-0.46","","fixation","","",""
"689","Set1/093a.jpg","79","image-keyboard-response","96","69498","0.0-3.0-1.46","","","Repeat","o","true"
"null","<div style=""font-size:60px;"">+</div>","null","html-keyboard-response","97","69999","0.0-3.0-0.47","","fixation","","",""
"586","Set1/054a.jpg","79","image-keyboard-response","98","70586","0.0-3.0-1.47","","","Repeat","o","true"
"null","<div style=""font-size:60px;"">+</div>","null","html-keyboard-response","99","71087","0.0-3.0-0.48","","fixation","","",""
"739","Set1/105a.jpg","78","image-keyboard-response","100","71826","0.0-3.0-1.48","","","Update","n","true"
"null","<div style=""font-size:60px;"">+</div>","null","html-keyboard-response","101","72327","0.0-3.0-0.49","","fixation","","",""
"754","Set1/045a.jpg","78","image-keyboard-response","102","73082","0.0-3.0-1.49","","","Repeat","n","true"
"null","<div style=""font-size:60px;"">+</div>","null","html-keyboard-response","103","73587","0.0-3.0-0.50","","fixation","","",""
"735","Set1/006a.jpg","79","image-keyboard-response","104","74322","0.0-3.0-1.50","","","Set_1_Only","o","true"
"null","<div style=""font-size:60px;"">+</div>","null","html-keyboard-response","105","74824","0.0-3.0-0.51","","fixation","","",""
"697","Set1/140a.jpg","79","image-keyboard-response","106","75522","0.0-3.0-1.51","","","Update","o","true"
"null","<div style=""font-size:60px;"">+</div>","null","html-keyboard-response","107","76026","0.0-3.0-0.52","","fixation","","",""
"678","Set1/027a.jpg","78","image-keyboard-response","108","76706","0.0-3.0-1.52","","","Set_1_Only","n","true"
"null","<div style=""font-size:60px;"">+</div>","null","html-keyboard-response","109","77206","0.0-3.0-0.53","","fixation","","",""
"676","Set1/049a.jpg","79","image-keyboard-response","110","77883","0.0-3.0-1.53","","","Repeat","o","true"
"null","<div style=""font-size:60px;"">+</div>","null","html-keyboard-response","111","78388","0.0-3.0-0.54","","fixation","","",""
"678","Set1/051a.jpg","79","image-keyboard-response","112","79067","0.0-3.0-1.54","","","Repeat","o","true"
"null","<div style=""font-size:60px;"">+</div>","null","html-keyboard-response","113","79567","0.0-3.0-0.55","","fixation","","",""
"602","Set1/028a.jpg","79","image-keyboard-response","114","80170","0.0-3.0-1.55","","","Set_1_Only","o","true"
"null","<div style=""font-size:60px;"">+</div>","null","html-keyboard-response","115","80674","0.0-3.0-0.56","","fixation","","",""
"575","Set1/047a.jpg","79","image-keyboard-response","116","81250","0.0-3.0-1.56","","","Repeat","o","true"
"null","<div style=""font-size:60px;"">+</div>","null","html-keyboard-response","117","81751","0.0-3.0-0.57","","fixation","","",""
"626","Set1/071a.jpg","79","image-keyboard-response","118","82378","0.0-3.0-1.57","","","Repeat","o","true"
"null","<div style=""font-size:60px;"">+</div>","null","html-keyboard-response","119","82881","0.0-3.0-0.58","","fixation","","",""
"761","Set1/108a.jpg","79","image-keyboard-response","120","83643","0.0-3.0-1.58","","","Update","o","true"
"null","<div style=""font-size:60px;"">+</div>","null","html-keyboard-response","121","84147","0.0-3.0-0.59","","fixation","","",""
"872","Set1/027a.jpg","79","image-keyboard-response","122","85019","0.0-3.0-1.59","","","Set_1_Only","o","true"
"null","<div style=""font-size:60px;"">+</div>","null","html-keyboard-response","123","85520","0.0-3.0-0.60","","fixation","","",""
"739","Set1/044a.jpg","79","image-keyboard-response","124","86260","0.0-3.0-1.60","","","Repeat","o","true"
"null","<div style=""font-size:60px;"">+</div>","null","html-keyboard-response","125","86761","0.0-3.0-0.61","","fixation","","",""
"689","Set1/045a.jpg","79","image-keyboard-response","126","87451","0.0-3.0-1.61","","","Repeat","o","true"
"null","<div style=""font-size:60px;"">+</div>","null","html-keyboard-response","127","87953","0.0-3.0-0.62","","fixation","","",""
"808","Set1/134a.jpg","78","image-keyboard-response","128","88763","0.0-3.0-1.62","","","Update","n","true"
"null","<div style=""font-size:60px;"">+</div>","null","html-keyboard-response","129","89266","0.0-3.0-0.63","","fixation","","",""
"1167","Set1/158a.jpg","79","image-keyboard-response","130","90435","0.0-3.0-1.63","","","Update","o","true"
"null","<div style=""font-size:60px;"">+</div>","null","html-keyboard-response","131","90937","0.0-3.0-0.64","","fixation","","",""
"681","Set1/106a.jpg","79","image-keyboard-response","132","91618","0.0-3.0-1.64","","","Update","o","true"
"null","<div style=""font-size:60px;"">+</div>","null","html-keyboard-response","133","92121","0.0-3.0-0.65","","fixation","","",""
"913","Set1/119a.jpg","78","image-keyboard-response","134","93034","0.0-3.0-1.65","","","Update","n","true"
"null","<div style=""font-size:60px;"">+</div>","null","html-keyboard-response","135","93536","0.0-3.0-0.66","","fixation","","",""
"683","Set1/105a.jpg","79","image-keyboard-response","136","94220","0.0-3.0-1.66","","","Update","o","true"
"null","<div style=""font-size:60px;"">+</div>","null","html-keyboard-response","137","94723","0.0-3.0-0.67","","fixation","","",""
"519","Set1/119a.jpg","78","image-keyboard-response","138","95243","0.0-3.0-1.67","","","Update","o","false"
"null","<div style=""font-size:60px;"">+</div>","null","html-keyboard-response","139","95748","0.0-3.0-0.68","","fixation","","",""
"null","Set1/148a.jpg","null","image-keyboard-response","140","105754","0.0-3.0-1.68","","","Update","o","false"
"null","<div style=""font-size:60px;"">+</div>","null","html-keyboard-response","141","106260","0.0-3.0-0.69","","fixation","","",""
"894","Set1/031a.jpg","79","image-keyboard-response","142","107155","0.0-3.0-1.69","","","Set_1_Only","o","true"
"null","<div style=""font-size:60px;"">+</div>","null","html-keyboard-response","143","107655","0.0-3.0-0.70","","fixation","","",""
"675","Set1/050a.jpg","79","image-keyboard-response","144","108331","0.0-3.0-1.70","","","Repeat","o","true"
"null","<div style=""font-size:60px;"">+</div>","null","html-keyboard-response","145","108834","0.0-3.0-0.71","","fixation","","",""
"737","Set1/082a.jpg","79","image-keyboard-response","146","109572","0.0-3.0-1.71","","","Repeat","o","true"
"null","<div style=""font-size:60px;"">+</div>","null","html-keyboard-response","147","110077","0.0-3.0-0.72","","fixation","","",""
"759","Set1/085a.jpg","79","image-keyboard-response","148","110836","0.0-3.0-1.72","","","Repeat","o","true"
"null","<div style=""font-size:60px;"">+</div>","null","html-keyboard-response","149","111338","0.0-3.0-0.73","","fixation","","",""
"777","Set1/030a.jpg","79","image-keyboard-response","150","112115","0.0-3.0-1.73","","","Set_1_Only","o","true"
"null","<div style=""font-size:60px;"">+</div>","null","html-keyboard-response","151","112616","0.0-3.0-0.74","","fixation","","",""
"1099","Set1/160a.jpg","78","image-keyboard-response","152","113715","0.0-3.0-1.74","","","Update","o","false"
"null","<div style=""font-size:60px;"">+</div>","null","html-keyboard-response","153","114216","0.0-3.0-0.75","","fixation","","",""
"1058","Set1/134a.jpg","79","image-keyboard-response","154","115276","0.0-3.0-1.75","","","Update","o","true"
"null","<div style=""font-size:60px;"">+</div>","null","html-keyboard-response","155","115780","0.0-3.0-0.76","","fixation","","",""
"1007","Set1/146a.jpg","79","image-keyboard-response","156","116787","0.0-3.0-1.76","","","Update","o","true"
"null","<div style=""font-size:60px;"">+</div>","null","html-keyboard-response","157","117290","0.0-3.0-0.77","","fixation","","",""
"1426","Set1/107a.jpg","79","image-keyboard-response","158","118717","0.0-3.0-1.77","","","Update","o","true"
"null","<div style=""font-size:60px;"">+</div>","null","html-keyboard-response","159","119221","0.0-3.0-0.78","","fixation","","",""
"838","Set1/079a.jpg","79","image-keyboard-response","160","120060","0.0-3.0-1.78","","","Repeat","o","true"
"null","<div style=""font-size:60px;"">+</div>","null","html-keyboard-response","161","120563","0.0-3.0-0.79","","fixation","","",""
"728","Set1/121a.jpg","79","image-keyboard-response","162","121292","0.0-3.0-1.79","","","Update","o","true"
"null","<div style=""font-size:60px;"">+</div>","null","html-keyboard-response","163","121794","0.0-3.0-0.80","","fixation","","",""
"834","Set1/095a.jpg","78","image-keyboard-response","164","122628","0.0-3.0-1.80","","","Repeat","n","true"
"null","<div style=""font-size:60px;"">+</div>","null","html-keyboard-response","165","123133","0.0-3.0-0.81","","fixation","","",""
"1095","Set1/041a.jpg","78","image-keyboard-response","166","124229","0.0-3.0-1.81","","","Repeat","n","true"
"null","<div style=""font-size:60px;"">+</div>","null","html-keyboard-response","167","124732","0.0-3.0-0.82","","fixation","","",""
"1040","Set1/100a.jpg","78","image-keyboard-response","168","125772","0.0-3.0-1.82","","","Update","n","true"
"null","<div style=""font-size:60px;"">+</div>","null","html-keyboard-response","169","126277","0.0-3.0-0.83","","fixation","","",""
"943","Set1/036a.jpg","78","image-keyboard-response","170","127221","0.0-3.0-1.83","","","Repeat","n","true"
"null","<div style=""font-size:60px;"">+</div>","null","html-keyboard-response","171","127725","0.0-3.0-0.84","","fixation","","",""
"854","Set1/115a.jpg","78","image-keyboard-response","172","128580","0.0-3.0-1.84","","","Update","n","true"
"null","<div style=""font-size:60px;"">+</div>","null","html-keyboard-response","173","129083","0.0-3.0-0.85","","fixation","","",""
"760","Set1/123a.jpg","78","image-keyboard-response","174","129844","0.0-3.0-1.85","","","Update","n","true"
"null","<div style=""font-size:60px;"">+</div>","null","html-keyboard-response","175","130349","0.0-3.0-0.86","","fixation","","",""
"1214","Set1/015a.jpg","78","image-keyboard-response","176","131565","0.0-3.0-1.86","","","Set_1_Only","n","true"
"null","<div style=""font-size:60px;"">+</div>","null","html-keyboard-response","177","132065","0.0-3.0-0.87","","fixation","","",""
"891","Set1/096a.jpg","78","image-keyboard-response","178","132957","0.0-3.0-1.87","","","Repeat","n","true"
"null","<div style=""font-size:60px;"">+</div>","null","html-keyboard-response","179","133458","0.0-3.0-0.88","","fixation","","",""
"826","Set1/110a.jpg","78","image-keyboard-response","180","134284","0.0-3.0-1.88","","","Update","n","true"
"null","<div style=""font-size:60px;"">+</div>","null","html-keyboard-response","181","134785","0.0-3.0-0.89","","fixation","","",""
"778","Set1/151a.jpg","78","image-keyboard-response","182","135565","0.0-3.0-1.89","","","Update","n","true"
"null","<div style=""font-size:60px;"">+</div>","null","html-keyboard-response","183","136068","0.0-3.0-0.90","","fixation","","",""
"735","Set1/035a.jpg","78","image-keyboard-response","184","136804","0.0-3.0-1.90","","","Repeat","n","true"
"null","<div style=""font-size:60px;"">+</div>","null","html-keyboard-response","185","137307","0.0-3.0-0.91","","fixation","","",""
"818","Set1/026a.jpg","78","image-keyboard-response","186","138126","0.0-3.0-1.91","","","Set_1_Only","n","true"
"null","<div style=""font-size:60px;"">+</div>","null","html-keyboard-response","187","138629","0.0-3.0-0.92","","fixation","","",""
"727","Set1/067a.jpg","78","image-keyboard-response","188","139356","0.0-3.0-1.92","","","Repeat","n","true"
"null","<div style=""font-size:60px;"">+</div>","null","html-keyboard-response","189","139859","0.0-3.0-0.93","","fixation","","",""
"610","Set1/076a.jpg","78","image-keyboard-response","190","140469","0.0-3.0-1.93","","","Repeat","n","true"
"null","<div style=""font-size:60px;"">+</div>","null","html-keyboard-response","191","140970","0.0-3.0-0.94","","fixation","","",""
"770","Set1/125a.jpg","78","image-keyboard-response","192","141740","0.0-3.0-1.94","","","Update","n","true"
"null","<div style=""font-size:60px;"">+</div>","null","html-keyboard-response","193","142243","0.0-3.0-0.95","","fixation","","",""
"816","Set1/123a.jpg","79","image-keyboard-response","194","143060","0.0-3.0-1.95","","","Update","o","true"
"null","<div style=""font-size:60px;"">+</div>","null","html-keyboard-response","195","143562","0.0-3.0-0.96","","fixation","","",""
"595","Set1/076a.jpg","79","image-keyboard-response","196","144157","0.0-3.0-1.96","","","Repeat","o","true"
"null","<div style=""font-size:60px;"">+</div>","null","html-keyboard-response","197","144661","0.0-3.0-0.97","","fixation","","",""
"727","Set1/151a.jpg","79","image-keyboard-response","198","145388","0.0-3.0-1.97","","","Update","o","true"
"null","<div style=""font-size:60px;"">+</div>","null","html-keyboard-response","199","145889","0.0-3.0-0.98","","fixation","","",""
"667","Set1/115a.jpg","79","image-keyboard-response","200","146557","0.0-3.0-1.98","","","Update","o","true"
"null","<div style=""font-size:60px;"">+</div>","null","html-keyboard-response","201","147058","0.0-3.0-0.99","","fixation","","",""
"873","Set1/081a.jpg","78","image-keyboard-response","202","147932","0.0-3.0-1.99","","","Repeat","n","true"
"null","<div style=""font-size:60px;"">+</div>","null","html-keyboard-response","203","148433","0.0-3.0-0.100","","fixation","","",""
"788","Set1/015a.jpg","79","image-keyboard-response","204","149221","0.0-3.0-1.100","","","Set_1_Only","o","true"
"null","<div style=""font-size:60px;"">+</div>","null","html-keyboard-response","205","149723","0.0-3.0-0.101","","fixation","","",""
"568","Set1/035a.jpg","79","image-keyboard-response","206","150292","0.0-3.0-1.101","","","Repeat","o","true"
"null","<div style=""font-size:60px;"">+</div>","null","html-keyboard-response","207","150794","0.0-3.0-0.102","","fixation","","",""
"954","Set1/014a.jpg","78","image-keyboard-response","208","151750","0.0-3.0-1.102","","","Set_1_Only","n","true"
"null","<div style=""font-size:60px;"">+</div>","null","html-keyboard-response","209","152251","0.0-3.0-0.103","","fixation","","",""
"665","Set1/152a.jpg","78","image-keyboard-response","210","152916","0.0-3.0-1.103","","","Update","n","true"
"null","<div style=""font-size:60px;"">+</div>","null","html-keyboard-response","211","153417","0.0-3.0-0.104","","fixation","","",""
"626","Set1/114a.jpg","78","image-keyboard-response","212","154045","0.0-3.0-1.104","","","Update","n","true"
"null","<div style=""font-size:60px;"">+</div>","null","html-keyboard-response","213","154548","0.0-3.0-0.105","","fixation","","",""
"752","Set1/019a.jpg","78","image-keyboard-response","214","155300","0.0-3.0-1.105","","","Set_1_Only","n","true"
"null","<div style=""font-size:60px;"">+</div>","null","html-keyboard-response","215","155802","0.0-3.0-0.106","","fixation","","",""
"786","Set1/013a.jpg","78","image-keyboard-response","216","156589","0.0-3.0-1.106","","","Set_1_Only","n","true"
"null","<div style=""font-size:60px;"">+</div>","null","html-keyboard-response","217","157093","0.0-3.0-0.107","","fixation","","",""
"1233","Set1/053a.jpg","78","image-keyboard-response","218","158326","0.0-3.0-1.107","","","Repeat","n","true"
"null","<div style=""font-size:60px;"">+</div>","null","html-keyboard-response","219","158827","0.0-3.0-0.108","","fixation","","",""
"954","Set1/026a.jpg","79","image-keyboard-response","220","159781","0.0-3.0-1.108","","","Set_1_Only","o","true"
"null","<div style=""font-size:60px;"">+</div>","null","html-keyboard-response","221","160285","0.0-3.0-0.109","","fixation","","",""
"854","Set1/138a.jpg","78","image-keyboard-response","222","161140","0.0-3.0-1.109","","","Update","n","true"
"null","<div style=""font-size:60px;"">+</div>","null","html-keyboard-response","223","161644","0.0-3.0-0.110","","fixation","","",""
"945","Set1/010a.jpg","78","image-keyboard-response","224","162589","0.0-3.0-1.110","","","Set_1_Only","n","true"
"null","<div style=""font-size:60px;"">+</div>","null","html-keyboard-response","225","163093","0.0-3.0-0.111","","fixation","","",""
"712","Set1/008a.jpg","78","image-keyboard-response","226","163805","0.0-3.0-1.111","","","Set_1_Only","n","true"
"null","<div style=""font-size:60px;"">+</div>","null","html-keyboard-response","227","164309","0.0-3.0-0.112","","fixation","","",""
"662","Set1/036a.jpg","79","image-keyboard-response","228","164972","0.0-3.0-1.112","","","Repeat","o","true"
"null","<div style=""font-size:60px;"">+</div>","null","html-keyboard-response","229","165475","0.0-3.0-0.113","","fixation","","",""
"697","Set1/081a.jpg","79","image-keyboard-response","230","166173","0.0-3.0-1.113","","","Repeat","o","true"
"null","<div style=""font-size:60px;"">+</div>","null","html-keyboard-response","231","166677","0.0-3.0-0.114","","fixation","","",""
"1184","Set1/114a.jpg","79","image-keyboard-response","232","167862","0.0-3.0-1.114","","","Update","o","true"
"null","<div style=""font-size:60px;"">+</div>","null","html-keyboard-response","233","168366","0.0-3.0-0.115","","fixation","","",""
"647","Set1/156a.jpg","78","image-keyboard-response","234","169013","0.0-3.0-1.115","","","Update","n","true"
"null","<div style=""font-size:60px;"">+</div>","null","html-keyboard-response","235","169514","0.0-3.0-0.116","","fixation","","",""
"660","Set1/056a.jpg","78","image-keyboard-response","236","170175","0.0-3.0-1.116","","","Repeat","n","true"
"null","<div style=""font-size:60px;"">+</div>","null","html-keyboard-response","237","170677","0.0-3.0-0.117","","fixation","","",""
"791","Set1/150a.jpg","78","image-keyboard-response","238","171469","0.0-3.0-1.117","","","Update","n","true"
"null","<div style=""font-size:60px;"">+</div>","null","html-keyboard-response","239","171970","0.0-3.0-0.118","","fixation","","",""
"667","Set1/152a.jpg","79","image-keyboard-response","240","172638","0.0-3.0-1.118","","","Update","o","true"
"null","<div style=""font-size:60px;"">+</div>","null","html-keyboard-response","241","173139","0.0-3.0-0.119","","fixation","","",""
"802","Set1/157a.jpg","78","image-keyboard-response","242","173941","0.0-3.0-1.119","","","Update","n","true"
"null","<div style=""font-size:60px;"">+</div>","null","html-keyboard-response","243","174446","0.0-3.0-0.120","","fixation","","",""
"662","Set1/059a.jpg","78","image-keyboard-response","244","175110","0.0-3.0-1.120","","","Repeat","n","true"
"null","<div style=""font-size:60px;"">+</div>","null","html-keyboard-response","245","175611","0.0-3.0-0.121","","fixation","","",""
"890","Set1/055a.jpg","78","image-keyboard-response","246","176502","0.0-3.0-1.121","","","Repeat","n","true"
"null","<div style=""font-size:60px;"">+</div>","null","html-keyboard-response","247","177005","0.0-3.0-0.122","","fixation","","",""
"704","Set1/019a.jpg","79","image-keyboard-response","248","177709","0.0-3.0-1.122","","","Set_1_Only","o","true"
"null","<div style=""font-size:60px;"">+</div>","null","html-keyboard-response","249","178214","0.0-3.0-0.123","","fixation","","",""
"702","Set1/075a.jpg","78","image-keyboard-response","250","178917","0.0-3.0-1.123","","","Repeat","n","true"
"null","<div style=""font-size:60px;"">+</div>","null","html-keyboard-response","251","179423","0.0-3.0-0.124","","fixation","","",""
"704","Set1/048a.jpg","78","image-keyboard-response","252","180127","0.0-3.0-1.124","","","Repeat","n","true"
"null","<div style=""font-size:60px;"">+</div>","null","html-keyboard-response","253","180630","0.0-3.0-0.125","","fixation","","",""
"655","Set1/052a.jpg","78","image-keyboard-response","254","181285","0.0-3.0-1.125","","","Repeat","n","true"
"null","<div style=""font-size:60px;"">+</div>","null","html-keyboard-response","255","181788","0.0-3.0-0.126","","fixation","","",""
"842","Set1/154a.jpg","78","image-keyboard-response","256","182630","0.0-3.0-1.126","","","Update","n","true"
"null","<div style=""font-size:60px;"">+</div>","null","html-keyboard-response","257","183131","0.0-3.0-0.127","","fixation","","",""
"706","Set1/041a.jpg","79","image-keyboard-response","258","183838","0.0-3.0-1.127","","","Repeat","o","true"
"null","<div style=""font-size:60px;"">+</div>","null","html-keyboard-response","259","184340","0.0-3.0-0.128","","fixation","","",""
"569","Set1/010a.jpg","79","image-keyboard-response","260","184910","0.0-3.0-1.128","","","Set_1_Only","o","true"
"null","<div style=""font-size:60px;"">+</div>","null","html-keyboard-response","261","185410","0.0-3.0-0.129","","fixation","","",""
"586","Set1/008a.jpg","79","image-keyboard-response","262","185997","0.0-3.0-1.129","","","Set_1_Only","o","true"
"null","<div style=""font-size:60px;"">+</div>","null","html-keyboard-response","263","186503","0.0-3.0-0.130","","fixation","","",""
"575","Set1/154a.jpg","79","image-keyboard-response","264","187078","0.0-3.0-1.130","","","Update","o","true"
"null","<div style=""font-size:60px;"">+</div>","null","html-keyboard-response","265","187583","0.0-3.0-0.131","","fixation","","",""
"768","Set1/048a.jpg","79","image-keyboard-response","266","188352","0.0-3.0-1.131","","","Repeat","o","true"
"null","<div style=""font-size:60px;"">+</div>","null","html-keyboard-response","267","188855","0.0-3.0-0.132","","fixation","","",""
"710","Set1/053a.jpg","79","image-keyboard-response","268","189566","0.0-3.0-1.132","","","Repeat","o","true"
"null","<div style=""font-size:60px;"">+</div>","null","html-keyboard-response","269","190067","0.0-3.0-0.133","","fixation","","",""
"658","Set1/138a.jpg","79","image-keyboard-response","270","190726","0.0-3.0-1.133","","","Update","o","true"
"null","<div style=""font-size:60px;"">+</div>","null","html-keyboard-response","271","191226","0.0-3.0-0.134","","fixation","","",""
"683","Set1/014a.jpg","79","image-keyboard-response","272","191910","0.0-3.0-1.134","","","Set_1_Only","o","true"
"null","<div style=""font-size:60px;"">+</div>","null","html-keyboard-response","273","192412","0.0-3.0-0.135","","fixation","","",""
"721","Set1/075a.jpg","79","image-keyboard-response","274","193134","0.0-3.0-1.135","","","Repeat","o","true"
"null","<div style=""font-size:60px;"">+</div>","null","html-keyboard-response","275","193638","0.0-3.0-0.136","","fixation","","",""
"671","Set1/111a.jpg","78","image-keyboard-response","276","194311","0.0-3.0-1.136","","","Update","n","true"
"null","<div style=""font-size:60px;"">+</div>","null","html-keyboard-response","277","194811","0.0-3.0-0.137","","fixation","","",""
"754","Set1/056a.jpg","79","image-keyboard-response","278","195566","0.0-3.0-1.137","","","Repeat","o","true"
"null","<div style=""font-size:60px;"">+</div>","null","html-keyboard-response","279","196070","0.0-3.0-0.138","","fixation","","",""
"758","Set1/003a.jpg","78","image-keyboard-response","280","196829","0.0-3.0-1.138","","","Set_1_Only","n","true"
"null","<div style=""font-size:60px;"">+</div>","null","html-keyboard-response","281","197334","0.0-3.0-0.139","","fixation","","",""
"1575","Set1/125a.jpg","78","image-keyboard-response","282","198910","0.0-3.0-1.139","","","Update","o","false"
"null","<div style=""font-size:60px;"">+</div>","null","html-keyboard-response","283","199413","0.0-3.0-0.140","","fixation","","",""
"1754","Set1/072a.jpg","78","image-keyboard-response","284","201168","0.0-3.0-1.140","","","Repeat","n","true"
"null","<div style=""font-size:60px;"">+</div>","null","html-keyboard-response","285","201673","0.0-3.0-0.141","","fixation","","",""
"940","Set1/084a.jpg","78","image-keyboard-response","286","202614","0.0-3.0-1.141","","","Repeat","n","true"
"null","<div style=""font-size:60px;"">+</div>","null","html-keyboard-response","287","203116","0.0-3.0-0.142","","fixation","","",""
"689","Set1/156a.jpg","79","image-keyboard-response","288","203806","0.0-3.0-1.142","","","Update","o","true"
"null","<div style=""font-size:60px;"">+</div>","null","html-keyboard-response","289","204307","0.0-3.0-0.143","","fixation","","",""
"763","Set1/003a.jpg","79","image-keyboard-response","290","205070","0.0-3.0-1.143","","","Set_1_Only","o","true"
"null","<div style=""font-size:60px;"">+</div>","null","html-keyboard-response","291","205575","0.0-3.0-0.144","","fixation","","",""
"759","Set1/059a.jpg","79","image-keyboard-response","292","206335","0.0-3.0-1.144","","","Repeat","o","true"
"null","<div style=""font-size:60px;"">+</div>","null","html-keyboard-response","293","206836","0.0-3.0-0.145","","fixation","","",""
"1059","Set1/110a.jpg","79","image-keyboard-response","294","207896","0.0-3.0-1.145","","","Update","o","true"
"null","<div style=""font-size:60px;"">+</div>","null","html-keyboard-response","295","208397","0.0-3.0-0.146","","fixation","","",""
"824","Set1/084a.jpg","79","image-keyboard-response","296","209222","0.0-3.0-1.146","","","Repeat","o","true"
"null","<div style=""font-size:60px;"">+</div>","null","html-keyboard-response","297","209727","0.0-3.0-0.147","","fixation","","",""
"703","Set1/072a.jpg","79","image-keyboard-response","298","210431","0.0-3.0-1.147","","","Repeat","o","true"
"null","<div style=""font-size:60px;"">+</div>","null","html-keyboard-response","299","210936","0.0-3.0-0.148","","fixation","","",""
"790","Set1/127a.jpg","78","image-keyboard-response","300","211727","0.0-3.0-1.148","","","Update","n","true"
"null","<div style=""font-size:60px;"">+</div>","null","html-keyboard-response","301","212228","0.0-3.0-0.149","","fixation","","",""
"1042","Set1/095a.jpg","79","image-keyboard-response","302","213270","0.0-3.0-1.149","","","Repeat","o","true"
"null","<div style=""font-size:60px;"">+</div>","null","html-keyboard-response","303","213775","0.0-3.0-0.150","","fixation","","",""
"712","Set1/013a.jpg","79","image-keyboard-response","304","214487","0.0-3.0-1.150","","","Set_1_Only","o","true"
"null","<div style=""font-size:60px;"">+</div>","null","html-keyboard-response","305","214992","0.0-3.0-0.151","","fixation","","",""
"670","Set1/067a.jpg","79","image-keyboard-response","306","215663","0.0-3.0-1.151","","","Repeat","o","true"
"null","<div style=""font-size:60px;"">+</div>","null","html-keyboard-response","307","216165","0.0-3.0-0.152","","fixation","","",""
"1458","Set1/157a.jpg","79","image-keyboard-response","308","217623","0.0-3.0-1.152","","","Update","o","true"
"null","<div style=""font-size:60px;"">+</div>","null","html-keyboard-response","309","218124","0.0-3.0-0.153","","fixation","","",""
"865","Set1/127a.jpg","79","image-keyboard-response","310","218990","0.0-3.0-1.153","","","Update","o","true"
"null","<div style=""font-size:60px;"">+</div>","null","html-keyboard-response","311","219491","0.0-3.0-0.154","","fixation","","",""
"1349","Set1/052a.jpg","79","image-keyboard-response","312","220840","0.0-3.0-1.154","","","Repeat","o","true"
"null","<div style=""font-size:60px;"">+</div>","null","html-keyboard-response","313","221342","0.0-3.0-0.155","","fixation","","",""
"649","Set1/055a.jpg","79","image-keyboard-response","314","221992","0.0-3.0-1.155","","","Repeat","o","true"
"null","<div style=""font-size:60px;"">+</div>","null","html-keyboard-response","315","222497","0.0-3.0-0.156","","fixation","","",""
"821","Set1/111a.jpg","79","image-keyboard-response","316","223318","0.0-3.0-1.156","","","Update","o","true"
"null","<div style=""font-size:60px;"">+</div>","null","html-keyboard-response","317","223820","0.0-3.0-0.157","","fixation","","",""
"1123","Set1/150a.jpg","79","image-keyboard-response","318","224943","0.0-3.0-1.157","","","Update","o","true"
"null","<div style=""font-size:60px;"">+</div>","null","html-keyboard-response","319","225445","0.0-3.0-0.158","","fixation","","",""
"714","Set1/100a.jpg","79","image-keyboard-response","320","226159","0.0-3.0-1.158","","","Update","o","true"
"null","<div style=""font-size:60px;"">+</div>","null","html-keyboard-response","321","226664","0.0-3.0-0.159","","fixation","","",""
"845","Set1/096a.jpg","79","image-keyboard-response","322","227511","0.0-3.0-1.159","","","Repeat","o","true"
"null","<div style=""font-size:60px;"">+</div>","null","html-keyboard-response","323","228012","0.0-3.0-0.160","","fixation","","",""
"746","Set1/159a.jpg","78","image-keyboard-response","324","228759","0.0-3.0-1.160","","","Update","n","true"
"null","<div style=""font-size:60px;"">+</div>","null","html-keyboard-response","325","229260","0.0-3.0-0.161","","fixation","","",""
"1028","Set1/074a.jpg","78","image-keyboard-response","326","230288","0.0-3.0-1.161","","","Repeat","n","true"
"null","<div style=""font-size:60px;"">+</div>","null","html-keyboard-response","327","230790","0.0-3.0-0.162","","fixation","","",""
"866","Set1/060a.jpg","78","image-keyboard-response","328","231656","0.0-3.0-1.162","","","Repeat","n","true"
"null","<div style=""font-size:60px;"">+</div>","null","html-keyboard-response","329","232157","0.0-3.0-0.163","","fixation","","",""
"698","Set1/062a.jpg","78","image-keyboard-response","330","232855","0.0-3.0-1.163","","","Repeat","n","true"
"null","<div style=""font-size:60px;"">+</div>","null","html-keyboard-response","331","233357","0.0-3.0-0.164","","fixation","","",""
"801","Set1/155a.jpg","78","image-keyboard-response","332","234159","0.0-3.0-1.164","","","Update","n","true"
"null","<div style=""font-size:60px;"">+</div>","null","html-keyboard-response","333","234662","0.0-3.0-0.165","","fixation","","",""
"697","Set1/117a.jpg","78","image-keyboard-response","334","235359","0.0-3.0-1.165","","","Update","n","true"
"null","<div style=""font-size:60px;"">+</div>","null","html-keyboard-response","335","235860","0.0-3.0-0.166","","fixation","","",""
"731","Set1/004a.jpg","78","image-keyboard-response","336","236591","0.0-3.0-1.166","","","Set_1_Only","n","true"
"null","<div style=""font-size:60px;"">+</div>","null","html-keyboard-response","337","237092","0.0-3.0-0.167","","fixation","","",""
"740","Set1/097a.jpg","78","image-keyboard-response","338","237832","0.0-3.0-1.167","","","Update","n","true"
"null","<div style=""font-size:60px;"">+</div>","null","html-keyboard-response","339","238337","0.0-3.0-0.168","","fixation","","",""
"701","Set1/130a.jpg","78","image-keyboard-response","340","239039","0.0-3.0-1.168","","","Update","n","true"
"null","<div style=""font-size:60px;"">+</div>","null","html-keyboard-response","341","239539","0.0-3.0-0.169","","fixation","","",""
"740","Set1/068a.jpg","78","image-keyboard-response","342","240280","0.0-3.0-1.169","","","Repeat","n","true"
"null","<div style=""font-size:60px;"">+</div>","null","html-keyboard-response","343","240784","0.0-3.0-0.170","","fixation","","",""
"662","Set1/137a.jpg","78","image-keyboard-response","344","241447","0.0-3.0-1.170","","","Update","n","true"
"null","<div style=""font-size:60px;"">+</div>","null","html-keyboard-response","345","241953","0.0-3.0-0.171","","fixation","","",""
"943","Set1/097a.jpg","79","image-keyboard-response","346","242896","0.0-3.0-1.171","","","Update","o","true"
"null","<div style=""font-size:60px;"">+</div>","null","html-keyboard-response","347","243397","0.0-3.0-0.172","","fixation","","",""
"690","Set1/147a.jpg","78","image-keyboard-response","348","244087","0.0-3.0-1.172","","","Update","n","true"
"null","<div style=""font-size:60px;"">+</div>","null","html-keyboard-response","349","244593","0.0-3.0-0.173","","fixation","","",""
"695","Set1/155a.jpg","79","image-keyboard-response","350","245288","0.0-3.0-1.173","","","Update","o","true"
"null","<div style=""font-size:60px;"">+</div>","null","html-keyboard-response","351","245793","0.0-3.0-0.174","","fixation","","",""
"822","Set1/002a.jpg","78","image-keyboard-response","352","246615","0.0-3.0-1.174","","","Set_1_Only","n","true"
"null","<div style=""font-size:60px;"">+</div>","null","html-keyboard-response","353","247116","0.0-3.0-0.175","","fixation","","",""
"1051","Set1/033a.jpg","78","image-keyboard-response","354","248167","0.0-3.0-1.175","","","Repeat","n","true"
"null","<div style=""font-size:60px;"">+</div>","null","html-keyboard-response","355","248671","0.0-3.0-0.176","","fixation","","",""
"903","Set1/102a.jpg","78","image-keyboard-response","356","249575","0.0-3.0-1.176","","","Update","n","true"
"null","<div style=""font-size:60px;"">+</div>","null","html-keyboard-response","357","250077","0.0-3.0-0.177","","fixation","","",""
"650","Set1/057a.jpg","78","image-keyboard-response","358","250728","0.0-3.0-1.177","","","Repeat","n","true"
"null","<div style=""font-size:60px;"">+</div>","null","html-keyboard-response","359","251233","0.0-3.0-0.178","","fixation","","",""
"638","Set1/147a.jpg","79","image-keyboard-response","360","251873","0.0-3.0-1.178","","","Update","o","true"
"null","<div style=""font-size:60px;"">+</div>","null","html-keyboard-response","361","252378","0.0-3.0-0.179","","fixation","","",""
"614","Set1/057a.jpg","79","image-keyboard-response","362","252992","0.0-3.0-1.179","","","Repeat","o","true"
"null","<div style=""font-size:60px;"">+</div>","null","html-keyboard-response","363","253496","0.0-3.0-0.180","","fixation","","",""
"783","Set1/131a.jpg","78","image-keyboard-response","364","254281","0.0-3.0-1.180","","","Update","n","true"
"null","<div style=""font-size:60px;"">+</div>","null","html-keyboard-response","365","254783","0.0-3.0-0.181","","fixation","","",""
"752","Set1/032a.jpg","78","image-keyboard-response","366","255536","0.0-3.0-1.181","","","Set_1_Only","n","true"
"null","<div style=""font-size:60px;"">+</div>","null","html-keyboard-response","367","256037","0.0-3.0-0.182","","fixation","","",""
"716","Set1/065a.jpg","78","image-keyboard-response","368","256754","0.0-3.0-1.182","","","Repeat","n","true"
"null","<div style=""font-size:60px;"">+</div>","null","html-keyboard-response","369","257254","0.0-3.0-0.183","","fixation","","",""
"673","Set1/149a.jpg","78","image-keyboard-response","370","257928","0.0-3.0-1.183","","","Update","n","true"
"null","<div style=""font-size:60px;"">+</div>","null","html-keyboard-response","371","258429","0.0-3.0-0.184","","fixation","","",""
"725","Set1/065a.jpg","79","image-keyboard-response","372","259156","0.0-3.0-1.184","","","Repeat","o","true"
"null","<div style=""font-size:60px;"">+</div>","null","html-keyboard-response","373","259658","0.0-3.0-0.185","","fixation","","",""
"885","Set1/089a.jpg","79","image-keyboard-response","374","260544","0.0-3.0-1.185","","","Repeat","n","false"
"null","<div style=""font-size:60px;"">+</div>","null","html-keyboard-response","375","261045","0.0-3.0-0.186","","fixation","","",""
"908","Set1/144a.jpg","78","image-keyboard-response","376","261953","0.0-3.0-1.186","","","Update","n","true"
"null","<div style=""font-size:60px;"">+</div>","null","html-keyboard-response","377","262456","0.0-3.0-0.187","","fixation","","",""
"960","Set1/069a.jpg","78","image-keyboard-response","378","263416","0.0-3.0-1.187","","","Repeat","n","true"
"null","<div style=""font-size:60px;"">+</div>","null","html-keyboard-response","379","263917","0.0-3.0-0.188","","fixation","","",""
"626","Set1/129a.jpg","78","image-keyboard-response","380","264543","0.0-3.0-1.188","","","Update","n","true"
"null","<div style=""font-size:60px;"">+</div>","null","html-keyboard-response","381","265049","0.0-3.0-0.189","","fixation","","",""
"809","Set1/032a.jpg","79","image-keyboard-response","382","265858","0.0-3.0-1.189","","","Set_1_Only","o","true"
"null","<div style=""font-size:60px;"">+</div>","null","html-keyboard-response","383","266360","0.0-3.0-0.190","","fixation","","",""
"778","Set1/024a.jpg","78","image-keyboard-response","384","267139","0.0-3.0-1.190","","","Set_1_Only","n","true"
"null","<div style=""font-size:60px;"">+</div>","null","html-keyboard-response","385","267641","0.0-3.0-0.191","","fixation","","",""
"694","Set1/078a.jpg","78","image-keyboard-response","386","268336","0.0-3.0-1.191","","","Repeat","n","true"
"null","<div style=""font-size:60px;"">+</div>","null","html-keyboard-response","387","268840","0.0-3.0-0.192","","fixation","","",""
"599","Set1/103a.jpg","78","image-keyboard-response","388","269440","0.0-3.0-1.192","","","Update","n","true"
"null","<div style=""font-size:60px;"">+</div>","null","html-keyboard-response","389","269941","0.0-3.0-0.193","","fixation","","",""
"826","Set1/130a.jpg","79","image-keyboard-response","390","270768","0.0-3.0-1.193","","","Update","o","true"
"null","<div style=""font-size:60px;"">+</div>","null","html-keyboard-response","391","271271","0.0-3.0-0.194","","fixation","","",""
"712","Set1/022a.jpg","78","image-keyboard-response","392","271984","0.0-3.0-1.194","","","Set_1_Only","n","true"
"null","<div style=""font-size:60px;"">+</div>","null","html-keyboard-response","393","272485","0.0-3.0-0.195","","fixation","","",""
"779","Set1/124a.jpg","78","image-keyboard-response","394","273264","0.0-3.0-1.195","","","Update","n","true"
"null","<div style=""font-size:60px;"">+</div>","null","html-keyboard-response","395","273769","0.0-3.0-0.196","","fixation","","",""
"726","Set1/068a.jpg","79","image-keyboard-response","396","274496","0.0-3.0-1.196","","","Repeat","o","true"
"null","<div style=""font-size:60px;"">+</div>","null","html-keyboard-response","397","275002","0.0-3.0-0.197","","fixation","","",""
"590","Set1/078a.jpg","79","image-keyboard-response","398","275592","0.0-3.0-1.197","","","Repeat","o","true"
"null","<div style=""font-size:60px;"">+</div>","null","html-keyboard-response","399","276093","0.0-3.0-0.198","","fixation","","",""
"626","Set1/137a.jpg","79","image-keyboard-response","400","276721","0.0-3.0-1.198","","","Update","o","true"
"null","<div style=""font-size:60px;"">+</div>","null","html-keyboard-response","401","277221","0.0-3.0-0.199","","fixation","","",""
"893","Set1/118a.jpg","78","image-keyboard-response","402","278115","0.0-3.0-1.199","","","Update","n","true"
"null","<div style=""font-size:60px;"">+</div>","null","html-keyboard-response","403","278618","0.0-3.0-0.200","","fixation","","",""
"653","Set1/149a.jpg","79","image-keyboard-response","404","279272","0.0-3.0-1.200","","","Update","o","true"
"null","<div style=""font-size:60px;"">+</div>","null","html-keyboard-response","405","279777","0.0-3.0-0.201","","fixation","","",""
"638","Set1/002a.jpg","79","image-keyboard-response","406","280417","0.0-3.0-1.201","","","Set_1_Only","o","true"
"null","<div style=""font-size:60px;"">+</div>","null","html-keyboard-response","407","280922","0.0-3.0-0.202","","fixation","","",""
"638","Set1/103a.jpg","79","image-keyboard-response","408","281561","0.0-3.0-1.202","","","Update","o","true"
"null","<div style=""font-size:60px;"">+</div>","null","html-keyboard-response","409","282063","0.0-3.0-0.203","","fixation","","",""
"984","Set1/012a.jpg","78","image-keyboard-response","410","283048","0.0-3.0-1.203","","","Set_1_Only","n","true"
"null","<div style=""font-size:60px;"">+</div>","null","html-keyboard-response","411","283549","0.0-3.0-0.204","","fixation","","",""
"819","Set1/104a.jpg","78","image-keyboard-response","412","284369","0.0-3.0-1.204","","","Update","n","true"
"null","<div style=""font-size:60px;"">+</div>","null","html-keyboard-response","413","284874","0.0-3.0-0.205","","fixation","","",""
"854","Set1/080a.jpg","78","image-keyboard-response","414","285729","0.0-3.0-1.205","","","Repeat","n","true"
"null","<div style=""font-size:60px;"">+</div>","null","html-keyboard-response","415","286232","0.0-3.0-0.206","","fixation","","",""
"656","Set1/040a.jpg","78","image-keyboard-response","416","286889","0.0-3.0-1.206","","","Repeat","n","true"
"null","<div style=""font-size:60px;"">+</div>","null","html-keyboard-response","417","287392","0.0-3.0-0.207","","fixation","","",""
"601","Set1/145a.jpg","78","image-keyboard-response","418","287993","0.0-3.0-1.207","","","Update","n","true"
"null","<div style=""font-size:60px;"">+</div>","null","html-keyboard-response","419","288498","0.0-3.0-0.208","","fixation","","",""
"798","Set1/004a.jpg","79","image-keyboard-response","420","289297","0.0-3.0-1.208","","","Set_1_Only","o","true"
"null","<div style=""font-size:60px;"">+</div>","null","html-keyboard-response","421","289801","0.0-3.0-0.209","","fixation","","",""
"831","Set1/073a.jpg","78","image-keyboard-response","422","290633","0.0-3.0-1.209","","","Repeat","n","true"
"null","<div style=""font-size:60px;"">+</div>","null","html-keyboard-response","423","291135","0.0-3.0-0.210","","fixation","","",""
"930","Set1/144a.jpg","79","image-keyboard-response","424","292065","0.0-3.0-1.210","","","Update","o","true"
"null","<div style=""font-size:60px;"">+</div>","null","html-keyboard-response","425","292569","0.0-3.0-0.211","","fixation","","",""
"780","Set1/145a.jpg","79","image-keyboard-response","426","293349","0.0-3.0-1.211","","","Update","o","true"
"null","<div style=""font-size:60px;"">+</div>","null","html-keyboard-response","427","293853","0.0-3.0-0.212","","fixation","","",""
"548","Set1/124a.jpg","79","image-keyboard-response","428","294401","0.0-3.0-1.212","","","Update","o","true"
"null","<div style=""font-size:60px;"">+</div>","null","html-keyboard-response","429","294903","0.0-3.0-0.213","","fixation","","",""
"705","Set1/040a.jpg","79","image-keyboard-response","430","295609","0.0-3.0-1.213","","","Repeat","o","true"
"null","<div style=""font-size:60px;"">+</div>","null","html-keyboard-response","431","296114","0.0-3.0-0.214","","fixation","","",""
"926","Set1/069a.jpg","79","image-keyboard-response","432","297040","0.0-3.0-1.214","","","Repeat","o","true"
"null","<div style=""font-size:60px;"">+</div>","null","html-keyboard-response","433","297541","0.0-3.0-0.215","","fixation","","",""
"675","Set1/143a.jpg","79","image-keyboard-response","434","298217","0.0-3.0-1.215","","","Update","n","false"
"null","<div style=""font-size:60px;"">+</div>","null","html-keyboard-response","435","298718","0.0-3.0-0.216","","fixation","","",""
"628","Set1/024a.jpg","79","image-keyboard-response","436","299347","0.0-3.0-1.216","","","Set_1_Only","o","true"
"null","<div style=""font-size:60px;"">+</div>","null","html-keyboard-response","437","299851","0.0-3.0-0.217","","fixation","","",""
"839","Set1/131a.jpg","79","image-keyboard-response","438","300690","0.0-3.0-1.217","","","Update","o","true"
"null","<div style=""font-size:60px;"">+</div>","null","html-keyboard-response","439","301191","0.0-3.0-0.218","","fixation","","",""
"707","Set1/094a.jpg","78","image-keyboard-response","440","301898","0.0-3.0-1.218","","","Repeat","n","true"
"null","<div style=""font-size:60px;"">+</div>","null","html-keyboard-response","441","302403","0.0-3.0-0.219","","fixation","","",""
"613","Set1/104a.jpg","79","image-keyboard-response","442","303017","0.0-3.0-1.219","","","Update","o","true"
"null","<div style=""font-size:60px;"">+</div>","null","html-keyboard-response","443","303518","0.0-3.0-0.220","","fixation","","",""
"507","Set1/080a.jpg","79","image-keyboard-response","444","304026","0.0-3.0-1.220","","","Repeat","o","true"
"null","<div style=""font-size:60px;"">+</div>","null","html-keyboard-response","445","304527","0.0-3.0-0.221","","fixation","","",""
"673","Set1/060a.jpg","79","image-keyboard-response","446","305201","0.0-3.0-1.221","","","Repeat","o","true"
"null","<div style=""font-size:60px;"">+</div>","null","html-keyboard-response","447","305706","0.0-3.0-0.222","","fixation","","",""
"1023","Set1/129a.jpg","79","image-keyboard-response","448","306730","0.0-3.0-1.222","","","Update","o","true"
"null","<div style=""font-size:60px;"">+</div>","null","html-keyboard-response","449","307233","0.0-3.0-0.223","","fixation","","",""
"623","Set1/089a.jpg","79","image-keyboard-response","450","307857","0.0-3.0-1.223","","","Repeat","o","true"
"null","<div style=""font-size:60px;"">+</div>","null","html-keyboard-response","451","308360","0.0-3.0-0.224","","fixation","","",""
"624","Set1/159a.jpg","79","image-keyboard-response","452","308985","0.0-3.0-1.224","","","Update","o","true"
"null","<div style=""font-size:60px;"">+</div>","null","html-keyboard-response","453","309490","0.0-3.0-0.225","","fixation","","",""
"991","Set1/135a.jpg","78","image-keyboard-response","454","310482","0.0-3.0-1.225","","","Update","n","true"
"null","<div style=""font-size:60px;"">+</div>","null","html-keyboard-response","455","310983","0.0-3.0-0.226","","fixation","","",""
"642","Set1/116a.jpg","78","image-keyboard-response","456","311625","0.0-3.0-1.226","","","Update","n","true"
"null","<div style=""font-size:60px;"">+</div>","null","html-keyboard-response","457","312129","0.0-3.0-0.227","","fixation","","",""
"831","Set1/102a.jpg","79","image-keyboard-response","458","312961","0.0-3.0-1.227","","","Update","o","true"
"null","<div style=""font-size:60px;"">+</div>","null","html-keyboard-response","459","313463","0.0-3.0-0.228","","fixation","","",""
"602","Set1/022a.jpg","79","image-keyboard-response","460","314066","0.0-3.0-1.228","","","Set_1_Only","o","true"
"null","<div style=""font-size:60px;"">+</div>","null","html-keyboard-response","461","314567","0.0-3.0-0.229","","fixation","","",""
"626","Set1/094a.jpg","79","image-keyboard-response","462","315194","0.0-3.0-1.229","","","Repeat","o","true"
"null","<div style=""font-size:60px;"">+</div>","null","html-keyboard-response","463","315695","0.0-3.0-0.230","","fixation","","",""
"594","Set1/118a.jpg","79","image-keyboard-response","464","316290","0.0-3.0-1.230","","","Update","o","true"
"null","<div style=""font-size:60px;"">+</div>","null","html-keyboard-response","465","316794","0.0-3.0-0.231","","fixation","","",""
"798","Set1/033a.jpg","79","image-keyboard-response","466","317593","0.0-3.0-1.231","","","Repeat","o","true"
"null","<div style=""font-size:60px;"">+</div>","null","html-keyboard-response","467","318098","0.0-3.0-0.232","","fixation","","",""
"655","Set1/117a.jpg","79","image-keyboard-response","468","318753","0.0-3.0-1.232","","","Update","o","true"
"null","<div style=""font-size:60px;"">+</div>","null","html-keyboard-response","469","319258","0.0-3.0-0.233","","fixation","","",""
"991","Set1/135a.jpg","79","image-keyboard-response","470","320250","0.0-3.0-1.233","","","Update","o","true"
"null","<div style=""font-size:60px;"">+</div>","null","html-keyboard-response","471","320751","0.0-3.0-0.234","","fixation","","",""
"609","Set1/116a.jpg","79","image-keyboard-response","472","321361","0.0-3.0-1.234","","","Update","o","true"
"null","<div style=""font-size:60px;"">+</div>","null","html-keyboard-response","473","321862","0.0-3.0-0.235","","fixation","","",""
"867","Set1/143a.jpg","79","image-keyboard-response","474","322730","0.0-3.0-1.235","","","Update","o","true"
"null","<div style=""font-size:60px;"">+</div>","null","html-keyboard-response","475","323234","0.0-3.0-0.236","","fixation","","",""
"744","Set1/074a.jpg","79","image-keyboard-response","476","323979","0.0-3.0-1.236","","","Repeat","o","true"
"null","<div style=""font-size:60px;"">+</div>","null","html-keyboard-response","477","324484","0.0-3.0-0.237","","fixation","","",""
"524","Set1/012a.jpg","79","image-keyboard-response","478","325009","0.0-3.0-1.237","","","Set_1_Only","o","true"
"null","<div style=""font-size:60px;"">+</div>","null","html-keyboard-response","479","325510","0.0-3.0-0.238","","fixation","","",""
"764","Set1/062a.jpg","79","image-keyboard-response","480","326275","0.0-3.0-1.238","","","Repeat","o","true"
"null","<div style=""font-size:60px;"">+</div>","null","html-keyboard-response","481","326780","0.0-3.0-0.239","","fixation","","",""
"572","Set1/073a.jpg","79","image-keyboard-response","482","327354","0.0-3.0-1.239","","","Repeat","o","true"
"null","<div style=""font-size:60px;"">+</div>","null","html-keyboard-response","483","327854","0.0-3.0-0.240","","fixation","","",""
"1075","Set1/029a.jpg","78","image-keyboard-response","484","328930","0.0-3.0-1.240","","","Set_1_Only","n","true"
"null","<div style=""font-size:60px;"">+</div>","null","html-keyboard-response","485","329435","0.0-3.0-0.241","","fixation","","",""
"646","Set1/098a.jpg","78","image-keyboard-response","486","330082","0.0-3.0-1.241","","","Update","n","true"
"null","<div style=""font-size:60px;"">+</div>","null","html-keyboard-response","487","330585","0.0-3.0-0.242","","fixation","","",""
"938","Set1/086a.jpg","78","image-keyboard-response","488","331523","0.0-3.0-1.242","","","Repeat","n","true"
"null","<div style=""font-size:60px;"">+</div>","null","html-keyboard-response","489","332028","0.0-3.0-0.243","","fixation","","",""
"614","Set1/070a.jpg","78","image-keyboard-response","490","332643","0.0-3.0-1.243","","","Repeat","n","true"
"null","<div style=""font-size:60px;"">+</div>","null","html-keyboard-response","491","333144","0.0-3.0-0.244","","fixation","","",""
"1274","Set1/091a.jpg","78","image-keyboard-response","492","334419","0.0-3.0-1.244","","","Repeat","n","true"
"null","<div style=""font-size:60px;"">+</div>","null","html-keyboard-response","493","334923","0.0-3.0-0.245","","fixation","","",""
"671","Set1/043a.jpg","78","image-keyboard-response","494","335595","0.0-3.0-1.245","","","Repeat","n","true"
"null","<div style=""font-size:60px;"">+</div>","null","html-keyboard-response","495","336098","0.0-3.0-0.246","","fixation","","",""
"1184","Set1/083a.jpg","78","image-keyboard-response","496","337283","0.0-3.0-1.246","","","Repeat","n","true"
"null","<div style=""font-size:60px;"">+</div>","null","html-keyboard-response","497","337788","0.0-3.0-0.247","","fixation","","",""
"806","Set1/011a.jpg","78","image-keyboard-response","498","338594","0.0-3.0-1.247","","","Set_1_Only","n","true"
"null","<div style=""font-size:60px;"">+</div>","null","html-keyboard-response","499","339100","0.0-3.0-0.248","","fixation","","",""
"870","Set1/142a.jpg","78","image-keyboard-response","500","339970","0.0-3.0-1.248","","","Update","n","true"
"null","<div style=""font-size:60px;"">+</div>","null","html-keyboard-response","501","340473","0.0-3.0-0.249","","fixation","","",""
"1355","Set1/061a.jpg","78","image-keyboard-response","502","341829","0.0-3.0-1.249","","","Repeat","n","true"
"null","<div style=""font-size:60px;"">+</div>","null","html-keyboard-response","503","342334","0.0-3.0-0.250","","fixation","","",""
"763","Set1/007a.jpg","78","image-keyboard-response","504","343098","0.0-3.0-1.250","","","Set_1_Only","n","true"
"null","<div style=""font-size:60px;"">+</div>","null","html-keyboard-response","505","343603","0.0-3.0-0.251","","fixation","","",""
"711","Set1/039a.jpg","78","image-keyboard-response","506","344314","0.0-3.0-1.251","","","Repeat","n","true"
"null","<div style=""font-size:60px;"">+</div>","null","html-keyboard-response","507","344817","0.0-3.0-0.252","","fixation","","",""
"625","Set1/023a.jpg","78","image-keyboard-response","508","345442","0.0-3.0-1.252","","","Set_1_Only","n","true"
"null","<div style=""font-size:60px;"">+</div>","null","html-keyboard-response","509","345945","0.0-3.0-0.253","","fixation","","",""
"608","Set1/001a.jpg","78","image-keyboard-response","510","346554","0.0-3.0-1.253","","","Set_1_Only","n","true"
"null","<div style=""font-size:60px;"">+</div>","null","html-keyboard-response","511","347060","0.0-3.0-0.254","","fixation","","",""
"799","Set1/038a.jpg","78","image-keyboard-response","512","347859","0.0-3.0-1.254","","","Repeat","n","true"
"null","<div style=""font-size:60px;"">+</div>","null","html-keyboard-response","513","348360","0.0-3.0-0.255","","fixation","","",""
"633","Set1/126a.jpg","78","image-keyboard-response","514","348994","0.0-3.0-1.255","","","Update","n","true"
"null","<div style=""font-size:60px;"">+</div>","null","html-keyboard-response","515","349497","0.0-3.0-0.256","","fixation","","",""
"616","Set1/021a.jpg","78","image-keyboard-response","516","350114","0.0-3.0-1.256","","","Set_1_Only","n","true"
"null","<div style=""font-size:60px;"">+</div>","null","html-keyboard-response","517","350615","0.0-3.0-0.257","","fixation","","",""
"474","Set1/109a.jpg","78","image-keyboard-response","518","351091","0.0-3.0-1.257","","","Update","n","true"
"null","<div style=""font-size:60px;"">+</div>","null","html-keyboard-response","519","351592","0.0-3.0-0.258","","fixation","","",""
"507","Set1/099a.jpg","78","image-keyboard-response","520","352099","0.0-3.0-1.258","","","Update","n","true"
"null","<div style=""font-size:60px;"">+</div>","null","html-keyboard-response","521","352600","0.0-3.0-0.259","","fixation","","",""
"537","Set1/122a.jpg","78","image-keyboard-response","522","353139","0.0-3.0-1.259","","","Update","n","true"
"null","<div style=""font-size:60px;"">+</div>","null","html-keyboard-response","523","353639","0.0-3.0-0.260","","fixation","","",""
"738","Set1/023a.jpg","79","image-keyboard-response","524","354378","0.0-3.0-1.260","","","Set_1_Only","o","true"
"null","<div style=""font-size:60px;"">+</div>","null","html-keyboard-response","525","354881","0.0-3.0-0.261","","fixation","","",""
"632","Set1/017a.jpg","78","image-keyboard-response","526","355514","0.0-3.0-1.261","","","Set_1_Only","n","true"
"null","<div style=""font-size:60px;"">+</div>","null","html-keyboard-response","527","356016","0.0-3.0-0.262","","fixation","","",""
"683","Set1/132a.jpg","78","image-keyboard-response","528","356699","0.0-3.0-1.262","","","Update","n","true"
"null","<div style=""font-size:60px;"">+</div>","null","html-keyboard-response","529","357200","0.0-3.0-0.263","","fixation","","",""
"586","Set1/042a.jpg","78","image-keyboard-response","530","357787","0.0-3.0-1.263","","","Repeat","n","true"
"null","<div style=""font-size:60px;"">+</div>","null","html-keyboard-response","531","358292","0.0-3.0-0.264","","fixation","","",""
"709","Set1/087a.jpg","78","image-keyboard-response","532","359002","0.0-3.0-1.264","","","Repeat","n","true"
"null","<div style=""font-size:60px;"">+</div>","null","html-keyboard-response","533","359503","0.0-3.0-0.265","","fixation","","",""
"643","Set1/101a.jpg","78","image-keyboard-response","534","360148","0.0-3.0-1.265","","","Update","n","true"
"null","<div style=""font-size:60px;"">+</div>","null","html-keyboard-response","535","360651","0.0-3.0-0.266","","fixation","","",""
"798","Set1/066a.jpg","78","image-keyboard-response","536","361451","0.0-3.0-1.266","","","Repeat","n","true"
"null","<div style=""font-size:60px;"">+</div>","null","html-keyboard-response","537","361954","0.0-3.0-0.267","","fixation","","",""
"713","Set1/091a.jpg","79","image-keyboard-response","538","362668","0.0-3.0-1.267","","","Repeat","o","true"
"null","<div style=""font-size:60px;"">+</div>","null","html-keyboard-response","539","363168","0.0-3.0-0.268","","fixation","","",""
"866","Set1/077a.jpg","78","image-keyboard-response","540","364035","0.0-3.0-1.268","","","Repeat","n","true"
"null","<div style=""font-size:60px;"">+</div>","null","html-keyboard-response","541","364540","0.0-3.0-0.269","","fixation","","",""
"862","Set1/042a.jpg","79","image-keyboard-response","542","365403","0.0-3.0-1.269","","","Repeat","o","true"
"null","<div style=""font-size:60px;"">+</div>","null","html-keyboard-response","543","365904","0.0-3.0-0.270","","fixation","","",""
"676","Set1/018a.jpg","78","image-keyboard-response","544","366580","0.0-3.0-1.270","","","Set_1_Only","n","true"
"null","<div style=""font-size:60px;"">+</div>","null","html-keyboard-response","545","367080","0.0-3.0-0.271","","fixation","","",""
"682","Set1/058a.jpg","78","image-keyboard-response","546","367763","0.0-3.0-1.271","","","Repeat","n","true"
"null","<div style=""font-size:60px;"">+</div>","null","html-keyboard-response","547","368264","0.0-3.0-0.272","","fixation","","",""
"690","Set1/132a.jpg","79","image-keyboard-response","548","368955","0.0-3.0-1.272","","","Update","o","true"
"null","<div style=""font-size:60px;"">+</div>","null","html-keyboard-response","549","369457","0.0-3.0-0.273","","fixation","","",""
"649","Set1/038a.jpg","79","image-keyboard-response","550","370108","0.0-3.0-1.273","","","Repeat","o","true"
"null","<div style=""font-size:60px;"">+</div>","null","html-keyboard-response","551","370611","0.0-3.0-0.274","","fixation","","",""
"654","Set1/066a.jpg","79","image-keyboard-response","552","371267","0.0-3.0-1.274","","","Repeat","o","true"
"null","<div style=""font-size:60px;"">+</div>","null","html-keyboard-response","553","371770","0.0-3.0-0.275","","fixation","","",""
"504","Set1/099a.jpg","79","image-keyboard-response","554","372276","0.0-3.0-1.275","","","Update","o","true"
"null","<div style=""font-size:60px;"">+</div>","null","html-keyboard-response","555","372777","0.0-3.0-0.276","","fixation","","",""
"522","Set1/126a.jpg","79","image-keyboard-response","556","373299","0.0-3.0-1.276","","","Update","o","true"
"null","<div style=""font-size:60px;"">+</div>","null","html-keyboard-response","557","373802","0.0-3.0-0.277","","fixation","","",""
"672","Set1/009a.jpg","78","image-keyboard-response","558","374475","0.0-3.0-1.277","","","Set_1_Only","n","true"
"null","<div style=""font-size:60px;"">+</div>","null","html-keyboard-response","559","374977","0.0-3.0-0.278","","fixation","","",""
"446","Set1/046a.jpg","78","image-keyboard-response","560","375424","0.0-3.0-1.278","","","Repeat","n","true"
"null","<div style=""font-size:60px;"">+</div>","null","html-keyboard-response","561","375925","0.0-3.0-0.279","","fixation","","",""
"558","Set1/039a.jpg","79","image-keyboard-response","562","376483","0.0-3.0-1.279","","","Repeat","o","true"
"null","<div style=""font-size:60px;"">+</div>","null","html-keyboard-response","563","376989","0.0-3.0-0.280","","fixation","","",""
"758","Set1/001a.jpg","79","image-keyboard-response","564","377747","0.0-3.0-1.280","","","Set_1_Only","o","true"
"null","<div style=""font-size:60px;"">+</div>","null","html-keyboard-response","565","378253","0.0-3.0-0.281","","fixation","","",""
"630","Set1/122a.jpg","79","image-keyboard-response","566","378883","0.0-3.0-1.281","","","Update","o","true"
"null","<div style=""font-size:60px;"">+</div>","null","html-keyboard-response","567","379384","0.0-3.0-0.282","","fixation","","",""
"960","Set1/086a.jpg","79","image-keyboard-response","568","380346","0.0-3.0-1.282","","","Repeat","o","true"
"null","<div style=""font-size:60px;"">+</div>","null","html-keyboard-response","569","380846","0.0-3.0-0.283","","fixation","","",""
"516","Set1/046a.jpg","79","image-keyboard-response","570","381363","0.0-3.0-1.283","","","Repeat","o","true"
"null","<div style=""font-size:60px;"">+</div>","null","html-keyboard-response","571","381864","0.0-3.0-0.284","","fixation","","",""
"563","Set1/043a.jpg","79","image-keyboard-response","572","382428","0.0-3.0-1.284","","","Repeat","o","true"
"null","<div style=""font-size:60px;"">+</div>","null","html-keyboard-response","573","382930","0.0-3.0-0.285","","fixation","","",""
"873","Set1/016a.jpg","78","image-keyboard-response","574","383805","0.0-3.0-1.285","","","Set_1_Only","n","true"
"null","<div style=""font-size:60px;"">+</div>","null","html-keyboard-response","575","384309","0.0-3.0-0.286","","fixation","","",""
"541","Set1/090a.jpg","78","image-keyboard-response","576","384851","0.0-3.0-1.286","","","Repeat","n","true"
"null","<div style=""font-size:60px;"">+</div>","null","html-keyboard-response","577","385353","0.0-3.0-0.287","","fixation","","",""
"916","Set1/141a.jpg","78","image-keyboard-response","578","386269","0.0-3.0-1.287","","","Update","n","true"
"null","<div style=""font-size:60px;"">+</div>","null","html-keyboard-response","579","386772","0.0-3.0-0.288","","fixation","","",""
"671","Set1/090a.jpg","79","image-keyboard-response","580","387443","0.0-3.0-1.288","","","Repeat","o","true"
"null","<div style=""font-size:60px;"">+</div>","null","html-keyboard-response","581","387945","0.0-3.0-0.289","","fixation","","",""
"659","Set1/139a.jpg","78","image-keyboard-response","582","388604","0.0-3.0-1.289","","","Update","n","true"
"null","<div style=""font-size:60px;"">+</div>","null","html-keyboard-response","583","389105","0.0-3.0-0.290","","fixation","","",""
"681","Set1/101a.jpg","79","image-keyboard-response","584","389787","0.0-3.0-1.290","","","Update","o","true"
"null","<div style=""font-size:60px;"">+</div>","null","html-keyboard-response","585","390292","0.0-3.0-0.291","","fixation","","",""
"904","Set1/092a.jpg","78","image-keyboard-response","586","391196","0.0-3.0-1.291","","","Repeat","n","true"
"null","<div style=""font-size:60px;"">+</div>","null","html-keyboard-response","587","391701","0.0-3.0-0.292","","fixation","","",""
"567","Set1/087a.jpg","79","image-keyboard-response","588","392269","0.0-3.0-1.292","","","Repeat","o","true"
"null","<div style=""font-size:60px;"">+</div>","null","html-keyboard-response","589","392770","0.0-3.0-0.293","","fixation","","",""
"682","Set1/034a.jpg","78","image-keyboard-response","590","393452","0.0-3.0-1.293","","","Repeat","n","true"
"null","<div style=""font-size:60px;"">+</div>","null","html-keyboard-response","591","393953","0.0-3.0-0.294","","fixation","","",""
"730","Set1/153a.jpg","78","image-keyboard-response","592","394684","0.0-3.0-1.294","","","Update","n","true"
"null","<div style=""font-size:60px;"">+</div>","null","html-keyboard-response","593","395186","0.0-3.0-0.295","","fixation","","",""
"808","Set1/092a.jpg","79","image-keyboard-response","594","395995","0.0-3.0-1.295","","","Repeat","o","true"
"null","<div style=""font-size:60px;"">+</div>","null","html-keyboard-response","595","396501","0.0-3.0-0.296","","fixation","","",""
"598","Set1/077a.jpg","79","image-keyboard-response","596","397099","0.0-3.0-1.296","","","Repeat","o","true"
"null","<div style=""font-size:60px;"">+</div>","null","html-keyboard-response","597","397604","0.0-3.0-0.297","","fixation","","",""
"855","Set1/112a.jpg","78","image-keyboard-response","598","398460","0.0-3.0-1.297","","","Update","n","true"
"null","<div style=""font-size:60px;"">+</div>","null","html-keyboard-response","599","398965","0.0-3.0-0.298","","fixation","","",""
"598","Set1/018a.jpg","79","image-keyboard-response","600","399564","0.0-3.0-1.298","","","Set_1_Only","o","true"
"null","<div style=""font-size:60px;"">+</div>","null","html-keyboard-response","601","400069","0.0-3.0-0.299","","fixation","","",""
"790","Set1/139a.jpg","79","image-keyboard-response","602","400859","0.0-3.0-1.299","","","Update","o","true"
"null","<div style=""font-size:60px;"">+</div>","null","html-keyboard-response","603","401362","0.0-3.0-0.300","","fixation","","",""
"642","Set1/153a.jpg","79","image-keyboard-response","604","402004","0.0-3.0-1.300","","","Update","o","true"
"null","<div style=""font-size:60px;"">+</div>","null","html-keyboard-response","605","402510","0.0-3.0-0.301","","fixation","","",""
"565","Set1/017a.jpg","79","image-keyboard-response","606","403076","0.0-3.0-1.301","","","Set_1_Only","o","true"
"null","<div style=""font-size:60px;"">+</div>","null","html-keyboard-response","607","403579","0.0-3.0-0.302","","fixation","","",""
"857","Set1/112a.jpg","79","image-keyboard-response","608","404436","0.0-3.0-1.302","","","Update","o","true"
"null","<div style=""font-size:60px;"">+</div>","null","html-keyboard-response","609","404936","0.0-3.0-0.303","","fixation","","",""
"1011","Set1/109a.jpg","79","image-keyboard-response","610","405948","0.0-3.0-1.303","","","Update","o","true"
"null","<div style=""font-size:60px;"">+</div>","null","html-keyboard-response","611","406453","0.0-3.0-0.304","","fixation","","",""
"822","Set1/021a.jpg","79","image-keyboard-response","612","407276","0.0-3.0-1.304","","","Set_1_Only","o","true"
"null","<div style=""font-size:60px;"">+</div>","null","html-keyboard-response","613","407776","0.0-3.0-0.305","","fixation","","",""
"1123","Set1/142a.jpg","79","image-keyboard-response","614","408900","0.0-3.0-1.305","","","Update","o","true"
"null","<div style=""font-size:60px;"">+</div>","null","html-keyboard-response","615","409401","0.0-3.0-0.306","","fixation","","",""
"859","Set1/113a.jpg","79","image-keyboard-response","616","410261","0.0-3.0-1.306","","","Update","n","false"
"null","<div style=""font-size:60px;"">+</div>","null","html-keyboard-response","617","410762","0.0-3.0-0.307","","fixation","","",""
"545","Set1/016a.jpg","79","image-keyboard-response","618","411308","0.0-3.0-1.307","","","Set_1_Only","o","true"
"null","<div style=""font-size:60px;"">+</div>","null","html-keyboard-response","619","411812","0.0-3.0-0.308","","fixation","","",""
"1433","Set1/061a.jpg","79","image-keyboard-response","620","413246","0.0-3.0-1.308","","","Repeat","o","true"
"null","<div style=""font-size:60px;"">+</div>","null","html-keyboard-response","621","413747","0.0-3.0-0.309","","fixation","","",""
"569","Set1/009a.jpg","79","image-keyboard-response","622","414317","0.0-3.0-1.309","","","Set_1_Only","o","true"
"null","<div style=""font-size:60px;"">+</div>","null","html-keyboard-response","623","414821","0.0-3.0-0.310","","fixation","","",""
"577","Set1/141a.jpg","79","image-keyboard-response","624","415399","0.0-3.0-1.310","","","Update","o","true"
"null","<div style=""font-size:60px;"">+</div>","null","html-keyboard-response","625","415903","0.0-3.0-0.311","","fixation","","",""
"614","Set1/011a.jpg","79","image-keyboard-response","626","416517","0.0-3.0-1.311","","","Set_1_Only","o","true"
"null","<div style=""font-size:60px;"">+</div>","null","html-keyboard-response","627","417022","0.0-3.0-0.312","","fixation","","",""
"806","Set1/113a.jpg","79","image-keyboard-response","628","417829","0.0-3.0-1.312","","","Update","o","true"
"null","<div style=""font-size:60px;"">+</div>","null","html-keyboard-response","629","418334","0.0-3.0-0.313","","fixation","","",""
"573","Set1/058a.jpg","79","image-keyboard-response","630","418908","0.0-3.0-1.313","","","Repeat","o","true"
"null","<div style=""font-size:60px;"">+</div>","null","html-keyboard-response","631","419410","0.0-3.0-0.314","","fixation","","",""
"1010","Set1/083a.jpg","78","image-keyboard-response","632","420421","0.0-3.0-1.314","","","Repeat","o","false"
"null","<div style=""font-size:60px;"">+</div>","null","html-keyboard-response","633","420923","0.0-3.0-0.315","","fixation","","",""
"897","Set1/029a.jpg","79","image-keyboard-response","634","421820","0.0-3.0-1.315","","","Set_1_Only","o","true"
"null","<div style=""font-size:60px;"">+</div>","null","html-keyboard-response","635","422325","0.0-3.0-0.316","","fixation","","",""
"686","Set1/034a.jpg","79","image-keyboard-response","636","423012","0.0-3.0-1.316","","","Repeat","o","true"
"null","<div style=""font-size:60px;"">+</div>","null","html-keyboard-response","637","423518","0.0-3.0-0.317","","fixation","","",""
"912","Set1/070a.jpg","79","image-keyboard-response","638","424430","0.0-3.0-1.317","","","Repeat","o","true"
"null","<div style=""font-size:60px;"">+</div>","null","html-keyboard-response","639","424933","0.0-3.0-0.318","","fixation","","",""
"856","Set1/098a.jpg","79","image-keyboard-response","640","425791","0.0-3.0-1.318","","","Update","o","true"
"null","<div style=""font-size:60px;"">+</div>","null","html-keyboard-response","641","426292","0.0-3.0-0.319","","fixation","","",""
"736","Set1/007a.jpg","79","image-keyboard-response","642","427029","0.0-3.0-1.319","","","Set_1_Only","o","true"
