"rt","stimulus","key_press","trial_type","trial_index","time_elapsed","internal_node_id","responses","test_part","stim_type","correct_response","correct"
"7824","Press any key to begin.","39","html-keyboard-response","0","7849","0.0-0.0","","","","",""
"14171","","","survey-text","1","22025","0.0-1.0","{""Q0"":""Set1_128719"",""Q1"":""""}","","","",""
"15810","<p>In this experiment you will see a series of everyday objects presented one at a time at the center of the screen. Each image will be presented twice. </p><p>The first time you see the image, press the N key to indicate that it is a NEW image. The second time you see the image, press the O key to indicate that it is an OLD image.</p><div style='width: 700px;'></div><p>Press any key to begin.</p>","32","html-keyboard-response","2","37837","0.0-2.0","","","","",""
"null","<div style=""font-size:60px;"">+</div>","null","html-keyboard-response","3","40361","0.0-3.0-0.0","","fixation","","",""
"7250","Set1/063a.jpg","78","image-keyboard-response","4","47613","0.0-3.0-1.0","","","Repeat","n","true"
"null","<div style=""font-size:60px;"">+</div>","null","html-keyboard-response","5","48125","0.0-3.0-0.1","","fixation","","",""
"2750","Set1/064a.jpg","78","image-keyboard-response","6","50877","0.0-3.0-1.1","","","Repeat","n","true"
"null","<div style=""font-size:60px;"">+</div>","null","html-keyboard-response","7","51394","0.0-3.0-0.2","","fixation","","",""
"1075","Set1/047a.jpg","78","image-keyboard-response","8","52469","0.0-3.0-1.2","","","Repeat","n","true"
"null","<div style=""font-size:60px;"">+</div>","null","html-keyboard-response","9","52975","0.0-3.0-0.3","","fixation","","",""
"885","Set1/025a.jpg","78","image-keyboard-response","10","53860","0.0-3.0-1.3","","","Set_1_Only","n","true"
"null","<div style=""font-size:60px;"">+</div>","null","html-keyboard-response","11","54371","0.0-3.0-0.4","","fixation","","",""
"771","Set1/146a.jpg","78","image-keyboard-response","12","55144","0.0-3.0-1.4","","","Update","n","true"
"null","<div style=""font-size:60px;"">+</div>","null","html-keyboard-response","13","55653","0.0-3.0-0.5","","fixation","","",""
"670","Set1/020a.jpg","78","image-keyboard-response","14","56325","0.0-3.0-1.5","","","Set_1_Only","n","true"
"null","<div style=""font-size:60px;"">+</div>","null","html-keyboard-response","15","56839","0.0-3.0-0.6","","fixation","","",""
"630","Set1/120a.jpg","78","image-keyboard-response","16","57469","0.0-3.0-1.6","","","Update","n","true"
"null","<div style=""font-size:60px;"">+</div>","null","html-keyboard-response","17","57985","0.0-3.0-0.7","","fixation","","",""
"593","Set1/148a.jpg","78","image-keyboard-response","18","58582","0.0-3.0-1.7","","","Update","n","true"
"null","<div style=""font-size:60px;"">+</div>","null","html-keyboard-response","19","59087","0.0-3.0-0.8","","fixation","","",""
"644","Set1/028a.jpg","78","image-keyboard-response","20","59734","0.0-3.0-1.8","","","Set_1_Only","n","true"
"null","<div style=""font-size:60px;"">+</div>","null","html-keyboard-response","21","60236","0.0-3.0-0.9","","fixation","","",""
"567","Set1/071a.jpg","78","image-keyboard-response","22","60806","0.0-3.0-1.9","","","Repeat","n","true"
"null","<div style=""font-size:60px;"">+</div>","null","html-keyboard-response","23","61319","0.0-3.0-0.10","","fixation","","",""
"862","Set1/030a.jpg","78","image-keyboard-response","24","62181","0.0-3.0-1.10","","","Set_1_Only","n","true"
"null","<div style=""font-size:60px;"">+</div>","null","html-keyboard-response","25","62686","0.0-3.0-0.11","","fixation","","",""
"615","Set1/037a.jpg","78","image-keyboard-response","26","63302","0.0-3.0-1.11","","","Repeat","n","true"
"null","<div style=""font-size:60px;"">+</div>","null","html-keyboard-response","27","63818","0.0-3.0-0.12","","fixation","","",""
"812","Set1/120a.jpg","79","image-keyboard-response","28","64630","0.0-3.0-1.12","","","Update","o","true"
"null","<div style=""font-size:60px;"">+</div>","null","html-keyboard-response","29","65133","0.0-3.0-0.13","","fixation","","",""
"742","Set1/005a.jpg","78","image-keyboard-response","30","65879","0.0-3.0-1.13","","","Set_1_Only","n","true"
"null","<div style=""font-size:60px;"">+</div>","null","html-keyboard-response","31","66382","0.0-3.0-0.14","","fixation","","",""
"718","Set1/079a.jpg","78","image-keyboard-response","32","67102","0.0-3.0-1.14","","","Repeat","n","true"
"null","<div style=""font-size:60px;"">+</div>","null","html-keyboard-response","33","67618","0.0-3.0-0.15","","fixation","","",""
"797","Set1/136a.jpg","78","image-keyboard-response","34","68417","0.0-3.0-1.15","","","Update","n","true"
"null","<div style=""font-size:60px;"">+</div>","null","html-keyboard-response","35","68920","0.0-3.0-0.16","","fixation","","",""
"677","Set1/133a.jpg","78","image-keyboard-response","36","69597","0.0-3.0-1.16","","","Update","n","true"
"null","<div style=""font-size:60px;"">+</div>","null","html-keyboard-response","37","70115","0.0-3.0-0.17","","fixation","","",""
"649","Set1/128a.jpg","78","image-keyboard-response","38","70766","0.0-3.0-1.17","","","Update","n","true"
"null","<div style=""font-size:60px;"">+</div>","null","html-keyboard-response","39","71269","0.0-3.0-0.18","","fixation","","",""
"null","Set1/054a.jpg","null","image-keyboard-response","40","81284","0.0-3.0-1.18","","","Repeat","n","false"
"null","<div style=""font-size:60px;"">+</div>","null","html-keyboard-response","41","81793","0.0-3.0-0.19","","fixation","","",""
"754","Set1/108a.jpg","78","image-keyboard-response","42","82549","0.0-3.0-1.19","","","Update","n","true"
"null","<div style=""font-size:60px;"">+</div>","null","html-keyboard-response","43","83058","0.0-3.0-0.20","","fixation","","",""
"721","Set1/050a.jpg","78","image-keyboard-response","44","83781","0.0-3.0-1.20","","","Repeat","n","true"
"null","<div style=""font-size:60px;"">+</div>","null","html-keyboard-response","45","84294","0.0-3.0-0.21","","fixation","","",""
"670","Set1/140a.jpg","78","image-keyboard-response","46","84964","0.0-3.0-1.21","","","Update","n","true"
"null","<div style=""font-size:60px;"">+</div>","null","html-keyboard-response","47","85476","0.0-3.0-0.22","","fixation","","",""
"632","Set1/051a.jpg","78","image-keyboard-response","48","86110","0.0-3.0-1.22","","","Repeat","n","true"
"null","<div style=""font-size:60px;"">+</div>","null","html-keyboard-response","49","86624","0.0-3.0-0.23","","fixation","","",""
"660","Set1/063a.jpg","79","image-keyboard-response","50","87284","0.0-3.0-1.23","","","Repeat","o","true"
"null","<div style=""font-size:60px;"">+</div>","null","html-keyboard-response","51","87791","0.0-3.0-0.24","","fixation","","",""
"779","Set1/006a.jpg","78","image-keyboard-response","52","88572","0.0-3.0-1.24","","","Set_1_Only","n","true"
"null","<div style=""font-size:60px;"">+</div>","null","html-keyboard-response","53","89089","0.0-3.0-0.25","","fixation","","",""
"634","Set1/158a.jpg","78","image-keyboard-response","54","89724","0.0-3.0-1.25","","","Update","n","true"
"null","<div style=""font-size:60px;"">+</div>","null","html-keyboard-response","55","90242","0.0-3.0-0.26","","fixation","","",""
"643","Set1/020a.jpg","79","image-keyboard-response","56","90885","0.0-3.0-1.26","","","Set_1_Only","o","true"
"null","<div style=""font-size:60px;"">+</div>","null","html-keyboard-response","57","91390","0.0-3.0-0.27","","fixation","","",""
"589","Set1/082a.jpg","78","image-keyboard-response","58","91981","0.0-3.0-1.27","","","Repeat","n","true"
"null","<div style=""font-size:60px;"">+</div>","null","html-keyboard-response","59","92490","0.0-3.0-0.28","","fixation","","",""
"635","Set1/107a.jpg","78","image-keyboard-response","60","93125","0.0-3.0-1.28","","","Update","n","true"
"null","<div style=""font-size:60px;"">+</div>","null","html-keyboard-response","61","93639","0.0-3.0-0.29","","fixation","","",""
"678","Set1/121a.jpg","78","image-keyboard-response","62","94317","0.0-3.0-1.29","","","Update","n","true"
"null","<div style=""font-size:60px;"">+</div>","null","html-keyboard-response","63","94822","0.0-3.0-0.30","","fixation","","",""
"702","Set1/085a.jpg","78","image-keyboard-response","64","95526","0.0-3.0-1.30","","","Repeat","n","true"
"null","<div style=""font-size:60px;"">+</div>","null","html-keyboard-response","65","96037","0.0-3.0-0.31","","fixation","","",""
"750","Set1/136a.jpg","79","image-keyboard-response","66","96789","0.0-3.0-1.31","","","Update","o","true"
"null","<div style=""font-size:60px;"">+</div>","null","html-keyboard-response","67","97305","0.0-3.0-0.32","","fixation","","",""
"707","Set1/049a.jpg","78","image-keyboard-response","68","98012","0.0-3.0-1.32","","","Repeat","n","true"
"null","<div style=""font-size:60px;"">+</div>","null","html-keyboard-response","69","98522","0.0-3.0-0.33","","fixation","","",""
"753","Set1/133a.jpg","79","image-keyboard-response","70","99277","0.0-3.0-1.33","","","Update","o","true"
"null","<div style=""font-size:60px;"">+</div>","null","html-keyboard-response","71","99787","0.0-3.0-0.34","","fixation","","",""
"657","Set1/093a.jpg","78","image-keyboard-response","72","100444","0.0-3.0-1.34","","","Repeat","n","true"
"null","<div style=""font-size:60px;"">+</div>","null","html-keyboard-response","73","100952","0.0-3.0-0.35","","fixation","","",""
"764","Set1/064a.jpg","79","image-keyboard-response","74","101716","0.0-3.0-1.35","","","Repeat","o","true"
"null","<div style=""font-size:60px;"">+</div>","null","html-keyboard-response","75","102219","0.0-3.0-0.36","","fixation","","",""
"743","Set1/005a.jpg","79","image-keyboard-response","76","102966","0.0-3.0-1.36","","","Set_1_Only","o","true"
"null","<div style=""font-size:60px;"">+</div>","null","html-keyboard-response","77","103467","0.0-3.0-0.37","","fixation","","",""
"681","Set1/128a.jpg","79","image-keyboard-response","78","104150","0.0-3.0-1.37","","","Update","o","true"
"null","<div style=""font-size:60px;"">+</div>","null","html-keyboard-response","79","104651","0.0-3.0-0.38","","fixation","","",""
"747","Set1/044a.jpg","78","image-keyboard-response","80","105398","0.0-3.0-1.38","","","Repeat","n","true"
"null","<div style=""font-size:60px;"">+</div>","null","html-keyboard-response","81","105900","0.0-3.0-0.39","","fixation","","",""
"720","Set1/037a.jpg","79","image-keyboard-response","82","106622","0.0-3.0-1.39","","","Repeat","o","true"
"null","<div style=""font-size:60px;"">+</div>","null","html-keyboard-response","83","107133","0.0-3.0-0.40","","fixation","","",""
"696","Set1/088a.jpg","78","image-keyboard-response","84","107829","0.0-3.0-1.40","","","Repeat","n","true"
"null","<div style=""font-size:60px;"">+</div>","null","html-keyboard-response","85","108336","0.0-3.0-0.41","","fixation","","",""
"989","Set1/106a.jpg","78","image-keyboard-response","86","109325","0.0-3.0-1.41","","","Update","n","true"
"null","<div style=""font-size:60px;"">+</div>","null","html-keyboard-response","87","109833","0.0-3.0-0.42","","fixation","","",""
"1050","Set1/031a.jpg","78","image-keyboard-response","88","110885","0.0-3.0-1.42","","","Set_1_Only","n","true"
"null","<div style=""font-size:60px;"">+</div>","null","html-keyboard-response","89","111398","0.0-3.0-0.43","","fixation","","",""
"735","Set1/160a.jpg","78","image-keyboard-response","90","112133","0.0-3.0-1.43","","","Update","n","true"
"null","<div style=""font-size:60px;"">+</div>","null","html-keyboard-response","91","112649","0.0-3.0-0.44","","fixation","","",""
"593","Set1/025a.jpg","79","image-keyboard-response","92","113244","0.0-3.0-1.44","","","Set_1_Only","o","true"
"null","<div style=""font-size:60px;"">+</div>","null","html-keyboard-response","93","113762","0.0-3.0-0.45","","fixation","","",""
"586","Set1/088a.jpg","78","image-keyboard-response","94","114348","0.0-3.0-1.45","","","Repeat","o","false"
"null","<div style=""font-size:60px;"">+</div>","null","html-keyboard-response","95","114864","0.0-3.0-0.46","","fixation","","",""
"731","Set1/093a.jpg","79","image-keyboard-response","96","115597","0.0-3.0-1.46","","","Repeat","o","true"
"null","<div style=""font-size:60px;"">+</div>","null","html-keyboard-response","97","116115","0.0-3.0-0.47","","fixation","","",""
"561","Set1/054a.jpg","78","image-keyboard-response","98","116678","0.0-3.0-1.47","","","Repeat","o","false"
"null","<div style=""font-size:60px;"">+</div>","null","html-keyboard-response","99","117194","0.0-3.0-0.48","","fixation","","",""
"714","Set1/105a.jpg","78","image-keyboard-response","100","117910","0.0-3.0-1.48","","","Update","n","true"
"null","<div style=""font-size:60px;"">+</div>","null","html-keyboard-response","101","118411","0.0-3.0-0.49","","fixation","","",""
"1384","Set1/045a.jpg","78","image-keyboard-response","102","119797","0.0-3.0-1.49","","","Repeat","n","true"
"null","<div style=""font-size:60px;"">+</div>","null","html-keyboard-response","103","120311","0.0-3.0-0.50","","fixation","","",""
"710","Set1/006a.jpg","79","image-keyboard-response","104","121021","0.0-3.0-1.50","","","Set_1_Only","o","true"
"null","<div style=""font-size:60px;"">+</div>","null","html-keyboard-response","105","121526","0.0-3.0-0.51","","fixation","","",""
"764","Set1/140a.jpg","79","image-keyboard-response","106","122294","0.0-3.0-1.51","","","Update","o","true"
"null","<div style=""font-size:60px;"">+</div>","null","html-keyboard-response","107","122806","0.0-3.0-0.52","","fixation","","",""
"853","Set1/027a.jpg","78","image-keyboard-response","108","123662","0.0-3.0-1.52","","","Set_1_Only","n","true"
"null","<div style=""font-size:60px;"">+</div>","null","html-keyboard-response","109","124177","0.0-3.0-0.53","","fixation","","",""
"819","Set1/049a.jpg","79","image-keyboard-response","110","124996","0.0-3.0-1.53","","","Repeat","o","true"
"null","<div style=""font-size:60px;"">+</div>","null","html-keyboard-response","111","125509","0.0-3.0-0.54","","fixation","","",""
"768","Set1/051a.jpg","79","image-keyboard-response","112","126280","0.0-3.0-1.54","","","Repeat","o","true"
"null","<div style=""font-size:60px;"">+</div>","null","html-keyboard-response","113","126793","0.0-3.0-0.55","","fixation","","",""
"940","Set1/028a.jpg","79","image-keyboard-response","114","127733","0.0-3.0-1.55","","","Set_1_Only","o","true"
"null","<div style=""font-size:60px;"">+</div>","null","html-keyboard-response","115","128240","0.0-3.0-0.56","","fixation","","",""
"699","Set1/047a.jpg","79","image-keyboard-response","116","128941","0.0-3.0-1.56","","","Repeat","o","true"
"null","<div style=""font-size:60px;"">+</div>","null","html-keyboard-response","117","129457","0.0-3.0-0.57","","fixation","","",""
"900","Set1/071a.jpg","79","image-keyboard-response","118","130359","0.0-3.0-1.57","","","Repeat","o","true"
"null","<div style=""font-size:60px;"">+</div>","null","html-keyboard-response","119","130872","0.0-3.0-0.58","","fixation","","",""
"729","Set1/108a.jpg","79","image-keyboard-response","120","131605","0.0-3.0-1.58","","","Update","o","true"
"null","<div style=""font-size:60px;"">+</div>","null","html-keyboard-response","121","132121","0.0-3.0-0.59","","fixation","","",""
"733","Set1/027a.jpg","79","image-keyboard-response","122","132854","0.0-3.0-1.59","","","Set_1_Only","o","true"
"null","<div style=""font-size:60px;"">+</div>","null","html-keyboard-response","123","133371","0.0-3.0-0.60","","fixation","","",""
"833","Set1/044a.jpg","79","image-keyboard-response","124","134204","0.0-3.0-1.60","","","Repeat","o","true"
"null","<div style=""font-size:60px;"">+</div>","null","html-keyboard-response","125","134722","0.0-3.0-0.61","","fixation","","",""
"770","Set1/045a.jpg","79","image-keyboard-response","126","135494","0.0-3.0-1.61","","","Repeat","o","true"
"null","<div style=""font-size:60px;"">+</div>","null","html-keyboard-response","127","136006","0.0-3.0-0.62","","fixation","","",""
"798","Set1/134a.jpg","78","image-keyboard-response","128","136804","0.0-3.0-1.62","","","Update","n","true"
"null","<div style=""font-size:60px;"">+</div>","null","html-keyboard-response","129","137319","0.0-3.0-0.63","","fixation","","",""
"670","Set1/158a.jpg","79","image-keyboard-response","130","137989","0.0-3.0-1.63","","","Update","o","true"
"null","<div style=""font-size:60px;"">+</div>","null","html-keyboard-response","131","138503","0.0-3.0-0.64","","fixation","","",""
"827","Set1/106a.jpg","79","image-keyboard-response","132","139332","0.0-3.0-1.64","","","Update","o","true"
"null","<div style=""font-size:60px;"">+</div>","null","html-keyboard-response","133","139835","0.0-3.0-0.65","","fixation","","",""
"1138","Set1/119a.jpg","78","image-keyboard-response","134","140973","0.0-3.0-1.65","","","Update","n","true"
"null","<div style=""font-size:60px;"">+</div>","null","html-keyboard-response","135","141486","0.0-3.0-0.66","","fixation","","",""
"781","Set1/105a.jpg","79","image-keyboard-response","136","142269","0.0-3.0-1.66","","","Update","o","true"
"null","<div style=""font-size:60px;"">+</div>","null","html-keyboard-response","137","142785","0.0-3.0-0.67","","fixation","","",""
"785","Set1/119a.jpg","78","image-keyboard-response","138","143572","0.0-3.0-1.67","","","Update","o","false"
"null","<div style=""font-size:60px;"">+</div>","null","html-keyboard-response","139","144085","0.0-3.0-0.68","","fixation","","",""
"927","Set1/148a.jpg","79","image-keyboard-response","140","145012","0.0-3.0-1.68","","","Update","o","true"
"null","<div style=""font-size:60px;"">+</div>","null","html-keyboard-response","141","145517","0.0-3.0-0.69","","fixation","","",""
"719","Set1/031a.jpg","79","image-keyboard-response","142","146238","0.0-3.0-1.69","","","Set_1_Only","o","true"
"null","<div style=""font-size:60px;"">+</div>","null","html-keyboard-response","143","146749","0.0-3.0-0.70","","fixation","","",""
"725","Set1/050a.jpg","79","image-keyboard-response","144","147476","0.0-3.0-1.70","","","Repeat","o","true"
"null","<div style=""font-size:60px;"">+</div>","null","html-keyboard-response","145","147983","0.0-3.0-0.71","","fixation","","",""
"701","Set1/082a.jpg","79","image-keyboard-response","146","148685","0.0-3.0-1.71","","","Repeat","o","true"
"null","<div style=""font-size:60px;"">+</div>","null","html-keyboard-response","147","149200","0.0-3.0-0.72","","fixation","","",""
"693","Set1/085a.jpg","79","image-keyboard-response","148","149893","0.0-3.0-1.72","","","Repeat","o","true"
"null","<div style=""font-size:60px;"">+</div>","null","html-keyboard-response","149","150398","0.0-3.0-0.73","","fixation","","",""
"798","Set1/030a.jpg","79","image-keyboard-response","150","151198","0.0-3.0-1.73","","","Set_1_Only","o","true"
"null","<div style=""font-size:60px;"">+</div>","null","html-keyboard-response","151","151712","0.0-3.0-0.74","","fixation","","",""
"674","Set1/160a.jpg","79","image-keyboard-response","152","152388","0.0-3.0-1.74","","","Update","o","true"
"null","<div style=""font-size:60px;"">+</div>","null","html-keyboard-response","153","152900","0.0-3.0-0.75","","fixation","","",""
"655","Set1/134a.jpg","79","image-keyboard-response","154","153557","0.0-3.0-1.75","","","Update","o","true"
"null","<div style=""font-size:60px;"">+</div>","null","html-keyboard-response","155","154064","0.0-3.0-0.76","","fixation","","",""
"1084","Set1/146a.jpg","79","image-keyboard-response","156","155148","0.0-3.0-1.76","","","Update","o","true"
"null","<div style=""font-size:60px;"">+</div>","null","html-keyboard-response","157","155649","0.0-3.0-0.77","","fixation","","",""
"724","Set1/107a.jpg","79","image-keyboard-response","158","156373","0.0-3.0-1.77","","","Update","o","true"
"null","<div style=""font-size:60px;"">+</div>","null","html-keyboard-response","159","156879","0.0-3.0-0.78","","fixation","","",""
"580","Set1/079a.jpg","79","image-keyboard-response","160","157461","0.0-3.0-1.78","","","Repeat","o","true"
"null","<div style=""font-size:60px;"">+</div>","null","html-keyboard-response","161","157977","0.0-3.0-0.79","","fixation","","",""
"620","Set1/121a.jpg","79","image-keyboard-response","162","158597","0.0-3.0-1.79","","","Update","o","true"
"null","<div style=""font-size:60px;"">+</div>","null","html-keyboard-response","163","159114","0.0-3.0-0.80","","fixation","","",""
"793","Set1/095a.jpg","78","image-keyboard-response","164","159908","0.0-3.0-1.80","","","Repeat","n","true"
"null","<div style=""font-size:60px;"">+</div>","null","html-keyboard-response","165","160426","0.0-3.0-0.81","","fixation","","",""
"1131","Set1/041a.jpg","78","image-keyboard-response","166","161557","0.0-3.0-1.81","","","Repeat","n","true"
"null","<div style=""font-size:60px;"">+</div>","null","html-keyboard-response","167","162060","0.0-3.0-0.82","","fixation","","",""
"745","Set1/100a.jpg","78","image-keyboard-response","168","162805","0.0-3.0-1.82","","","Update","n","true"
"null","<div style=""font-size:60px;"">+</div>","null","html-keyboard-response","169","163309","0.0-3.0-0.83","","fixation","","",""
"785","Set1/036a.jpg","78","image-keyboard-response","170","164094","0.0-3.0-1.83","","","Repeat","n","true"
"null","<div style=""font-size:60px;"">+</div>","null","html-keyboard-response","171","164607","0.0-3.0-0.84","","fixation","","",""
"683","Set1/115a.jpg","78","image-keyboard-response","172","165292","0.0-3.0-1.84","","","Update","n","true"
"null","<div style=""font-size:60px;"">+</div>","null","html-keyboard-response","173","165806","0.0-3.0-0.85","","fixation","","",""
"695","Set1/123a.jpg","78","image-keyboard-response","174","166501","0.0-3.0-1.85","","","Update","n","true"
"null","<div style=""font-size:60px;"">+</div>","null","html-keyboard-response","175","167008","0.0-3.0-0.86","","fixation","","",""
"1029","Set1/015a.jpg","78","image-keyboard-response","176","168037","0.0-3.0-1.86","","","Set_1_Only","n","true"
"null","<div style=""font-size:60px;"">+</div>","null","html-keyboard-response","177","168542","0.0-3.0-0.87","","fixation","","",""
"1158","Set1/096a.jpg","78","image-keyboard-response","178","169701","0.0-3.0-1.87","","","Repeat","n","true"
"null","<div style=""font-size:60px;"">+</div>","null","html-keyboard-response","179","170206","0.0-3.0-0.88","","fixation","","",""
"965","Set1/110a.jpg","78","image-keyboard-response","180","171173","0.0-3.0-1.88","","","Update","n","true"
"null","<div style=""font-size:60px;"">+</div>","null","html-keyboard-response","181","171676","0.0-3.0-0.89","","fixation","","",""
"743","Set1/151a.jpg","78","image-keyboard-response","182","172421","0.0-3.0-1.89","","","Update","n","true"
"null","<div style=""font-size:60px;"">+</div>","null","html-keyboard-response","183","172923","0.0-3.0-0.90","","fixation","","",""
"848","Set1/035a.jpg","78","image-keyboard-response","184","173772","0.0-3.0-1.90","","","Repeat","n","true"
"null","<div style=""font-size:60px;"">+</div>","null","html-keyboard-response","185","174286","0.0-3.0-0.91","","fixation","","",""
"812","Set1/026a.jpg","78","image-keyboard-response","186","175100","0.0-3.0-1.91","","","Set_1_Only","n","true"
"null","<div style=""font-size:60px;"">+</div>","null","html-keyboard-response","187","175605","0.0-3.0-0.92","","fixation","","",""
"791","Set1/067a.jpg","78","image-keyboard-response","188","176396","0.0-3.0-1.92","","","Repeat","n","true"
"null","<div style=""font-size:60px;"">+</div>","null","html-keyboard-response","189","176902","0.0-3.0-0.93","","fixation","","",""
"735","Set1/076a.jpg","78","image-keyboard-response","190","177641","0.0-3.0-1.93","","","Repeat","n","true"
"null","<div style=""font-size:60px;"">+</div>","null","html-keyboard-response","191","178154","0.0-3.0-0.94","","fixation","","",""
"739","Set1/125a.jpg","78","image-keyboard-response","192","178893","0.0-3.0-1.94","","","Update","n","true"
"null","<div style=""font-size:60px;"">+</div>","null","html-keyboard-response","193","179403","0.0-3.0-0.95","","fixation","","",""
"530","Set1/123a.jpg","78","image-keyboard-response","194","179933","0.0-3.0-1.95","","","Update","o","false"
"null","<div style=""font-size:60px;"">+</div>","null","html-keyboard-response","195","180436","0.0-3.0-0.96","","fixation","","",""
"1190","Set1/076a.jpg","79","image-keyboard-response","196","181628","0.0-3.0-1.96","","","Repeat","o","true"
"null","<div style=""font-size:60px;"">+</div>","null","html-keyboard-response","197","182135","0.0-3.0-0.97","","fixation","","",""
"727","Set1/151a.jpg","79","image-keyboard-response","198","182862","0.0-3.0-1.97","","","Update","o","true"
"null","<div style=""font-size:60px;"">+</div>","null","html-keyboard-response","199","183367","0.0-3.0-0.98","","fixation","","",""
"948","Set1/115a.jpg","79","image-keyboard-response","200","184317","0.0-3.0-1.98","","","Update","o","true"
"null","<div style=""font-size:60px;"">+</div>","null","html-keyboard-response","201","184835","0.0-3.0-0.99","","fixation","","",""
"1138","Set1/081a.jpg","78","image-keyboard-response","202","185973","0.0-3.0-1.99","","","Repeat","n","true"
"null","<div style=""font-size:60px;"">+</div>","null","html-keyboard-response","203","186482","0.0-3.0-0.100","","fixation","","",""
"804","Set1/015a.jpg","79","image-keyboard-response","204","187286","0.0-3.0-1.100","","","Set_1_Only","o","true"
"null","<div style=""font-size:60px;"">+</div>","null","html-keyboard-response","205","187801","0.0-3.0-0.101","","fixation","","",""
"650","Set1/035a.jpg","79","image-keyboard-response","206","188453","0.0-3.0-1.101","","","Repeat","o","true"
"null","<div style=""font-size:60px;"">+</div>","null","html-keyboard-response","207","188966","0.0-3.0-0.102","","fixation","","",""
"708","Set1/014a.jpg","78","image-keyboard-response","208","189678","0.0-3.0-1.102","","","Set_1_Only","n","true"
"null","<div style=""font-size:60px;"">+</div>","null","html-keyboard-response","209","190181","0.0-3.0-0.103","","fixation","","",""
"944","Set1/152a.jpg","78","image-keyboard-response","210","191127","0.0-3.0-1.103","","","Update","n","true"
"null","<div style=""font-size:60px;"">+</div>","null","html-keyboard-response","211","191630","0.0-3.0-0.104","","fixation","","",""
"635","Set1/114a.jpg","78","image-keyboard-response","212","192269","0.0-3.0-1.104","","","Update","n","true"
"null","<div style=""font-size:60px;"">+</div>","null","html-keyboard-response","213","192780","0.0-3.0-0.105","","fixation","","",""
"1016","Set1/019a.jpg","78","image-keyboard-response","214","193797","0.0-3.0-1.105","","","Set_1_Only","n","true"
"null","<div style=""font-size:60px;"">+</div>","null","html-keyboard-response","215","194298","0.0-3.0-0.106","","fixation","","",""
"994","Set1/013a.jpg","78","image-keyboard-response","216","195292","0.0-3.0-1.106","","","Set_1_Only","n","true"
"null","<div style=""font-size:60px;"">+</div>","null","html-keyboard-response","217","195795","0.0-3.0-0.107","","fixation","","",""
"929","Set1/053a.jpg","78","image-keyboard-response","218","196726","0.0-3.0-1.107","","","Repeat","n","true"
"null","<div style=""font-size:60px;"">+</div>","null","html-keyboard-response","219","197229","0.0-3.0-0.108","","fixation","","",""
"639","Set1/026a.jpg","79","image-keyboard-response","220","197868","0.0-3.0-1.108","","","Set_1_Only","o","true"
"null","<div style=""font-size:60px;"">+</div>","null","html-keyboard-response","221","198380","0.0-3.0-0.109","","fixation","","",""
"856","Set1/138a.jpg","78","image-keyboard-response","222","199236","0.0-3.0-1.109","","","Update","n","true"
"null","<div style=""font-size:60px;"">+</div>","null","html-keyboard-response","223","199745","0.0-3.0-0.110","","fixation","","",""
"754","Set1/010a.jpg","78","image-keyboard-response","224","200501","0.0-3.0-1.110","","","Set_1_Only","n","true"
"null","<div style=""font-size:60px;"">+</div>","null","html-keyboard-response","225","201010","0.0-3.0-0.111","","fixation","","",""
"779","Set1/008a.jpg","78","image-keyboard-response","226","201789","0.0-3.0-1.111","","","Set_1_Only","n","true"
"null","<div style=""font-size:60px;"">+</div>","null","html-keyboard-response","227","202294","0.0-3.0-0.112","","fixation","","",""
"664","Set1/036a.jpg","79","image-keyboard-response","228","202958","0.0-3.0-1.112","","","Repeat","o","true"
"null","<div style=""font-size:60px;"">+</div>","null","html-keyboard-response","229","203459","0.0-3.0-0.113","","fixation","","",""
"802","Set1/081a.jpg","79","image-keyboard-response","230","204261","0.0-3.0-1.113","","","Repeat","o","true"
"null","<div style=""font-size:60px;"">+</div>","null","html-keyboard-response","231","204776","0.0-3.0-0.114","","fixation","","",""
"716","Set1/114a.jpg","79","image-keyboard-response","232","205492","0.0-3.0-1.114","","","Update","o","true"
"null","<div style=""font-size:60px;"">+</div>","null","html-keyboard-response","233","206006","0.0-3.0-0.115","","fixation","","",""
"758","Set1/156a.jpg","78","image-keyboard-response","234","206768","0.0-3.0-1.115","","","Update","n","true"
"null","<div style=""font-size:60px;"">+</div>","null","html-keyboard-response","235","207277","0.0-3.0-0.116","","fixation","","",""
"767","Set1/056a.jpg","78","image-keyboard-response","236","208044","0.0-3.0-1.116","","","Repeat","n","true"
"null","<div style=""font-size:60px;"">+</div>","null","html-keyboard-response","237","208557","0.0-3.0-0.117","","fixation","","",""
"668","Set1/150a.jpg","78","image-keyboard-response","238","209229","0.0-3.0-1.117","","","Update","n","true"
"null","<div style=""font-size:60px;"">+</div>","null","html-keyboard-response","239","209741","0.0-3.0-0.118","","fixation","","",""
"639","Set1/152a.jpg","79","image-keyboard-response","240","210380","0.0-3.0-1.118","","","Update","o","true"
"null","<div style=""font-size:60px;"">+</div>","null","html-keyboard-response","241","210889","0.0-3.0-0.119","","fixation","","",""
"687","Set1/157a.jpg","78","image-keyboard-response","242","211580","0.0-3.0-1.119","","","Update","n","true"
"null","<div style=""font-size:60px;"">+</div>","null","html-keyboard-response","243","212089","0.0-3.0-0.120","","fixation","","",""
"651","Set1/059a.jpg","78","image-keyboard-response","244","212741","0.0-3.0-1.120","","","Repeat","n","true"
"null","<div style=""font-size:60px;"">+</div>","null","html-keyboard-response","245","213256","0.0-3.0-0.121","","fixation","","",""
"732","Set1/055a.jpg","78","image-keyboard-response","246","213989","0.0-3.0-1.121","","","Repeat","n","true"
"null","<div style=""font-size:60px;"">+</div>","null","html-keyboard-response","247","214505","0.0-3.0-0.122","","fixation","","",""
"772","Set1/019a.jpg","79","image-keyboard-response","248","215277","0.0-3.0-1.122","","","Set_1_Only","o","true"
"null","<div style=""font-size:60px;"">+</div>","null","html-keyboard-response","249","215787","0.0-3.0-0.123","","fixation","","",""
"680","Set1/075a.jpg","78","image-keyboard-response","250","216469","0.0-3.0-1.123","","","Repeat","n","true"
"null","<div style=""font-size:60px;"">+</div>","null","html-keyboard-response","251","216987","0.0-3.0-0.124","","fixation","","",""
"649","Set1/048a.jpg","78","image-keyboard-response","252","217636","0.0-3.0-1.124","","","Repeat","n","true"
"null","<div style=""font-size:60px;"">+</div>","null","html-keyboard-response","253","218150","0.0-3.0-0.125","","fixation","","",""
"662","Set1/052a.jpg","78","image-keyboard-response","254","218814","0.0-3.0-1.125","","","Repeat","n","true"
"null","<div style=""font-size:60px;"">+</div>","null","html-keyboard-response","255","219319","0.0-3.0-0.126","","fixation","","",""
"748","Set1/154a.jpg","78","image-keyboard-response","256","220067","0.0-3.0-1.126","","","Update","n","true"
"null","<div style=""font-size:60px;"">+</div>","null","html-keyboard-response","257","220570","0.0-3.0-0.127","","fixation","","",""
"618","Set1/041a.jpg","79","image-keyboard-response","258","221190","0.0-3.0-1.127","","","Repeat","o","true"
"null","<div style=""font-size:60px;"">+</div>","null","html-keyboard-response","259","221701","0.0-3.0-0.128","","fixation","","",""
"581","Set1/010a.jpg","79","image-keyboard-response","260","222286","0.0-3.0-1.128","","","Set_1_Only","o","true"
"null","<div style=""font-size:60px;"">+</div>","null","html-keyboard-response","261","222801","0.0-3.0-0.129","","fixation","","",""
"610","Set1/008a.jpg","79","image-keyboard-response","262","223413","0.0-3.0-1.129","","","Set_1_Only","o","true"
"null","<div style=""font-size:60px;"">+</div>","null","html-keyboard-response","263","223916","0.0-3.0-0.130","","fixation","","",""
"733","Set1/154a.jpg","79","image-keyboard-response","264","224651","0.0-3.0-1.130","","","Update","o","true"
"null","<div style=""font-size:60px;"">+</div>","null","html-keyboard-response","265","225165","0.0-3.0-0.131","","fixation","","",""
"718","Set1/048a.jpg","79","image-keyboard-response","266","225885","0.0-3.0-1.131","","","Repeat","o","true"
"null","<div style=""font-size:60px;"">+</div>","null","html-keyboard-response","267","226400","0.0-3.0-0.132","","fixation","","",""
"620","Set1/053a.jpg","79","image-keyboard-response","268","227021","0.0-3.0-1.132","","","Repeat","o","true"
"null","<div style=""font-size:60px;"">+</div>","null","html-keyboard-response","269","227534","0.0-3.0-0.133","","fixation","","",""
"668","Set1/138a.jpg","79","image-keyboard-response","270","228206","0.0-3.0-1.133","","","Update","o","true"
"null","<div style=""font-size:60px;"">+</div>","null","html-keyboard-response","271","228714","0.0-3.0-0.134","","fixation","","",""
"641","Set1/014a.jpg","79","image-keyboard-response","272","229357","0.0-3.0-1.134","","","Set_1_Only","o","true"
"null","<div style=""font-size:60px;"">+</div>","null","html-keyboard-response","273","229864","0.0-3.0-0.135","","fixation","","",""
"628","Set1/075a.jpg","79","image-keyboard-response","274","230494","0.0-3.0-1.135","","","Repeat","o","true"
"null","<div style=""font-size:60px;"">+</div>","null","html-keyboard-response","275","230996","0.0-3.0-0.136","","fixation","","",""
"766","Set1/111a.jpg","78","image-keyboard-response","276","231764","0.0-3.0-1.136","","","Update","n","true"
"null","<div style=""font-size:60px;"">+</div>","null","html-keyboard-response","277","232279","0.0-3.0-0.137","","fixation","","",""
"654","Set1/056a.jpg","79","image-keyboard-response","278","232933","0.0-3.0-1.137","","","Repeat","o","true"
"null","<div style=""font-size:60px;"">+</div>","null","html-keyboard-response","279","233446","0.0-3.0-0.138","","fixation","","",""
"709","Set1/003a.jpg","78","image-keyboard-response","280","234156","0.0-3.0-1.138","","","Set_1_Only","n","true"
"null","<div style=""font-size:60px;"">+</div>","null","html-keyboard-response","281","234664","0.0-3.0-0.139","","fixation","","",""
"590","Set1/125a.jpg","79","image-keyboard-response","282","235254","0.0-3.0-1.139","","","Update","o","true"
"null","<div style=""font-size:60px;"">+</div>","null","html-keyboard-response","283","235764","0.0-3.0-0.140","","fixation","","",""
"678","Set1/072a.jpg","78","image-keyboard-response","284","236444","0.0-3.0-1.140","","","Repeat","n","true"
"null","<div style=""font-size:60px;"">+</div>","null","html-keyboard-response","285","236960","0.0-3.0-0.141","","fixation","","",""
"789","Set1/084a.jpg","78","image-keyboard-response","286","237749","0.0-3.0-1.141","","","Repeat","n","true"
"null","<div style=""font-size:60px;"">+</div>","null","html-keyboard-response","287","238261","0.0-3.0-0.142","","fixation","","",""
"647","Set1/156a.jpg","79","image-keyboard-response","288","238910","0.0-3.0-1.142","","","Update","o","true"
"null","<div style=""font-size:60px;"">+</div>","null","html-keyboard-response","289","239411","0.0-3.0-0.143","","fixation","","",""
"704","Set1/003a.jpg","79","image-keyboard-response","290","240117","0.0-3.0-1.143","","","Set_1_Only","o","true"
"null","<div style=""font-size:60px;"">+</div>","null","html-keyboard-response","291","240626","0.0-3.0-0.144","","fixation","","",""
"683","Set1/059a.jpg","79","image-keyboard-response","292","241309","0.0-3.0-1.144","","","Repeat","o","true"
"null","<div style=""font-size:60px;"">+</div>","null","html-keyboard-response","293","241824","0.0-3.0-0.145","","fixation","","",""
"629","Set1/110a.jpg","79","image-keyboard-response","294","242453","0.0-3.0-1.145","","","Update","o","true"
"null","<div style=""font-size:60px;"">+</div>","null","html-keyboard-response","295","242960","0.0-3.0-0.146","","fixation","","",""
"754","Set1/084a.jpg","79","image-keyboard-response","296","243716","0.0-3.0-1.146","","","Repeat","o","true"
"null","<div style=""font-size:60px;"">+</div>","null","html-keyboard-response","297","244227","0.0-3.0-0.147","","fixation","","",""
"610","Set1/072a.jpg","79","image-keyboard-response","298","244837","0.0-3.0-1.147","","","Repeat","o","true"
"null","<div style=""font-size:60px;"">+</div>","null","html-keyboard-response","299","245342","0.0-3.0-0.148","","fixation","","",""
"831","Set1/127a.jpg","78","image-keyboard-response","300","246173","0.0-3.0-1.148","","","Update","n","true"
"null","<div style=""font-size:60px;"">+</div>","null","html-keyboard-response","301","246674","0.0-3.0-0.149","","fixation","","",""
"737","Set1/095a.jpg","79","image-keyboard-response","302","247413","0.0-3.0-1.149","","","Repeat","o","true"
"null","<div style=""font-size:60px;"">+</div>","null","html-keyboard-response","303","247925","0.0-3.0-0.150","","fixation","","",""
"590","Set1/013a.jpg","79","image-keyboard-response","304","248517","0.0-3.0-1.150","","","Set_1_Only","o","true"
"null","<div style=""font-size:60px;"">+</div>","null","html-keyboard-response","305","249021","0.0-3.0-0.151","","fixation","","",""
"613","Set1/067a.jpg","79","image-keyboard-response","306","249638","0.0-3.0-1.151","","","Repeat","o","true"
"null","<div style=""font-size:60px;"">+</div>","null","html-keyboard-response","307","250140","0.0-3.0-0.152","","fixation","","",""
"576","Set1/157a.jpg","79","image-keyboard-response","308","250716","0.0-3.0-1.152","","","Update","o","true"
"null","<div style=""font-size:60px;"">+</div>","null","html-keyboard-response","309","251223","0.0-3.0-0.153","","fixation","","",""
"677","Set1/127a.jpg","79","image-keyboard-response","310","251902","0.0-3.0-1.153","","","Update","o","true"
"null","<div style=""font-size:60px;"">+</div>","null","html-keyboard-response","311","252407","0.0-3.0-0.154","","fixation","","",""
"557","Set1/052a.jpg","79","image-keyboard-response","312","252964","0.0-3.0-1.154","","","Repeat","o","true"
"null","<div style=""font-size:60px;"">+</div>","null","html-keyboard-response","313","253472","0.0-3.0-0.155","","fixation","","",""
"517","Set1/055a.jpg","79","image-keyboard-response","314","253989","0.0-3.0-1.155","","","Repeat","o","true"
"null","<div style=""font-size:60px;"">+</div>","null","html-keyboard-response","315","254505","0.0-3.0-0.156","","fixation","","",""
"593","Set1/111a.jpg","79","image-keyboard-response","316","255100","0.0-3.0-1.156","","","Update","o","true"
"null","<div style=""font-size:60px;"">+</div>","null","html-keyboard-response","317","255603","0.0-3.0-0.157","","fixation","","",""
"568","Set1/150a.jpg","79","image-keyboard-response","318","256175","0.0-3.0-1.157","","","Update","o","true"
"null","<div style=""font-size:60px;"">+</div>","null","html-keyboard-response","319","256686","0.0-3.0-0.158","","fixation","","",""
"582","Set1/100a.jpg","79","image-keyboard-response","320","257269","0.0-3.0-1.158","","","Update","o","true"
"null","<div style=""font-size:60px;"">+</div>","null","html-keyboard-response","321","257770","0.0-3.0-0.159","","fixation","","",""
"871","Set1/096a.jpg","79","image-keyboard-response","322","258645","0.0-3.0-1.159","","","Repeat","o","true"
"null","<div style=""font-size:60px;"">+</div>","null","html-keyboard-response","323","259152","0.0-3.0-0.160","","fixation","","",""
"819","Set1/159a.jpg","78","image-keyboard-response","324","259973","0.0-3.0-1.160","","","Update","n","true"
"null","<div style=""font-size:60px;"">+</div>","null","html-keyboard-response","325","260488","0.0-3.0-0.161","","fixation","","",""
"645","Set1/074a.jpg","78","image-keyboard-response","326","261133","0.0-3.0-1.161","","","Repeat","n","true"
"null","<div style=""font-size:60px;"">+</div>","null","html-keyboard-response","327","261651","0.0-3.0-0.162","","fixation","","",""
"672","Set1/060a.jpg","78","image-keyboard-response","328","262323","0.0-3.0-1.162","","","Repeat","n","true"
"null","<div style=""font-size:60px;"">+</div>","null","html-keyboard-response","329","262837","0.0-3.0-0.163","","fixation","","",""
"814","Set1/062a.jpg","78","image-keyboard-response","330","263653","0.0-3.0-1.163","","","Repeat","n","true"
"null","<div style=""font-size:60px;"">+</div>","null","html-keyboard-response","331","264167","0.0-3.0-0.164","","fixation","","",""
"563","Set1/155a.jpg","78","image-keyboard-response","332","264733","0.0-3.0-1.164","","","Update","n","true"
"null","<div style=""font-size:60px;"">+</div>","null","html-keyboard-response","333","265250","0.0-3.0-0.165","","fixation","","",""
"681","Set1/117a.jpg","78","image-keyboard-response","334","265933","0.0-3.0-1.165","","","Update","n","true"
"null","<div style=""font-size:60px;"">+</div>","null","html-keyboard-response","335","266449","0.0-3.0-0.166","","fixation","","",""
"649","Set1/004a.jpg","78","image-keyboard-response","336","267100","0.0-3.0-1.166","","","Set_1_Only","n","true"
"null","<div style=""font-size:60px;"">+</div>","null","html-keyboard-response","337","267616","0.0-3.0-0.167","","fixation","","",""
"651","Set1/097a.jpg","78","image-keyboard-response","338","268269","0.0-3.0-1.167","","","Update","n","true"
"null","<div style=""font-size:60px;"">+</div>","null","html-keyboard-response","339","268783","0.0-3.0-0.168","","fixation","","",""
"643","Set1/130a.jpg","78","image-keyboard-response","340","269428","0.0-3.0-1.168","","","Update","n","true"
"null","<div style=""font-size:60px;"">+</div>","null","html-keyboard-response","341","269931","0.0-3.0-0.169","","fixation","","",""
"722","Set1/068a.jpg","78","image-keyboard-response","342","270653","0.0-3.0-1.169","","","Repeat","n","true"
"null","<div style=""font-size:60px;"">+</div>","null","html-keyboard-response","343","271165","0.0-3.0-0.170","","fixation","","",""
"647","Set1/137a.jpg","78","image-keyboard-response","344","271812","0.0-3.0-1.170","","","Update","n","true"
"null","<div style=""font-size:60px;"">+</div>","null","html-keyboard-response","345","272315","0.0-3.0-0.171","","fixation","","",""
"679","Set1/097a.jpg","79","image-keyboard-response","346","272996","0.0-3.0-1.171","","","Update","o","true"
"null","<div style=""font-size:60px;"">+</div>","null","html-keyboard-response","347","273513","0.0-3.0-0.172","","fixation","","",""
"625","Set1/147a.jpg","78","image-keyboard-response","348","274140","0.0-3.0-1.172","","","Update","n","true"
"null","<div style=""font-size:60px;"">+</div>","null","html-keyboard-response","349","274645","0.0-3.0-0.173","","fixation","","",""
"599","Set1/155a.jpg","79","image-keyboard-response","350","275244","0.0-3.0-1.173","","","Update","o","true"
"null","<div style=""font-size:60px;"">+</div>","null","html-keyboard-response","351","275760","0.0-3.0-0.174","","fixation","","",""
"757","Set1/002a.jpg","78","image-keyboard-response","352","276517","0.0-3.0-1.174","","","Set_1_Only","n","true"
"null","<div style=""font-size:60px;"">+</div>","null","html-keyboard-response","353","277029","0.0-3.0-0.175","","fixation","","",""
"733","Set1/033a.jpg","78","image-keyboard-response","354","277764","0.0-3.0-1.175","","","Repeat","n","true"
"null","<div style=""font-size:60px;"">+</div>","null","html-keyboard-response","355","278279","0.0-3.0-0.176","","fixation","","",""
"693","Set1/102a.jpg","78","image-keyboard-response","356","278973","0.0-3.0-1.176","","","Update","n","true"
"null","<div style=""font-size:60px;"">+</div>","null","html-keyboard-response","357","279478","0.0-3.0-0.177","","fixation","","",""
"670","Set1/057a.jpg","78","image-keyboard-response","358","280148","0.0-3.0-1.177","","","Repeat","n","true"
"null","<div style=""font-size:60px;"">+</div>","null","html-keyboard-response","359","280659","0.0-3.0-0.178","","fixation","","",""
"535","Set1/147a.jpg","78","image-keyboard-response","360","281198","0.0-3.0-1.178","","","Update","o","false"
"null","<div style=""font-size:60px;"">+</div>","null","html-keyboard-response","361","281710","0.0-3.0-0.179","","fixation","","",""
"663","Set1/057a.jpg","79","image-keyboard-response","362","282375","0.0-3.0-1.179","","","Repeat","o","true"
"null","<div style=""font-size:60px;"">+</div>","null","html-keyboard-response","363","282877","0.0-3.0-0.180","","fixation","","",""
"684","Set1/131a.jpg","78","image-keyboard-response","364","283565","0.0-3.0-1.180","","","Update","n","true"
"null","<div style=""font-size:60px;"">+</div>","null","html-keyboard-response","365","284073","0.0-3.0-0.181","","fixation","","",""
"1169","Set1/032a.jpg","78","image-keyboard-response","366","285244","0.0-3.0-1.181","","","Set_1_Only","n","true"
"null","<div style=""font-size:60px;"">+</div>","null","html-keyboard-response","367","285758","0.0-3.0-0.182","","fixation","","",""
"630","Set1/065a.jpg","78","image-keyboard-response","368","286388","0.0-3.0-1.182","","","Repeat","n","true"
"null","<div style=""font-size:60px;"">+</div>","null","html-keyboard-response","369","286904","0.0-3.0-0.183","","fixation","","",""
"668","Set1/149a.jpg","78","image-keyboard-response","370","287572","0.0-3.0-1.183","","","Update","n","true"
"null","<div style=""font-size:60px;"">+</div>","null","html-keyboard-response","371","288075","0.0-3.0-0.184","","fixation","","",""
"722","Set1/065a.jpg","79","image-keyboard-response","372","288797","0.0-3.0-1.184","","","Repeat","o","true"
"null","<div style=""font-size:60px;"">+</div>","null","html-keyboard-response","373","289307","0.0-3.0-0.185","","fixation","","",""
"1152","Set1/089a.jpg","78","image-keyboard-response","374","290461","0.0-3.0-1.185","","","Repeat","n","true"
"null","<div style=""font-size:60px;"">+</div>","null","html-keyboard-response","375","290973","0.0-3.0-0.186","","fixation","","",""
"653","Set1/144a.jpg","78","image-keyboard-response","376","291628","0.0-3.0-1.186","","","Update","n","true"
"null","<div style=""font-size:60px;"">+</div>","null","html-keyboard-response","377","292140","0.0-3.0-0.187","","fixation","","",""
"712","Set1/069a.jpg","78","image-keyboard-response","378","292854","0.0-3.0-1.187","","","Repeat","n","true"
"null","<div style=""font-size:60px;"">+</div>","null","html-keyboard-response","379","293367","0.0-3.0-0.188","","fixation","","",""
"691","Set1/129a.jpg","78","image-keyboard-response","380","294060","0.0-3.0-1.188","","","Update","n","true"
"null","<div style=""font-size:60px;"">+</div>","null","html-keyboard-response","381","294570","0.0-3.0-0.189","","fixation","","",""
"795","Set1/032a.jpg","79","image-keyboard-response","382","295365","0.0-3.0-1.189","","","Set_1_Only","o","true"
"null","<div style=""font-size:60px;"">+</div>","null","html-keyboard-response","383","295872","0.0-3.0-0.190","","fixation","","",""
"1140","Set1/024a.jpg","78","image-keyboard-response","384","297012","0.0-3.0-1.190","","","Set_1_Only","n","true"
"null","<div style=""font-size:60px;"">+</div>","null","html-keyboard-response","385","297520","0.0-3.0-0.191","","fixation","","",""
"626","Set1/078a.jpg","78","image-keyboard-response","386","298148","0.0-3.0-1.191","","","Repeat","n","true"
"null","<div style=""font-size:60px;"">+</div>","null","html-keyboard-response","387","298653","0.0-3.0-0.192","","fixation","","",""
"848","Set1/103a.jpg","78","image-keyboard-response","388","299501","0.0-3.0-1.192","","","Update","n","true"
"null","<div style=""font-size:60px;"">+</div>","null","html-keyboard-response","389","300002","0.0-3.0-0.193","","fixation","","",""
"952","Set1/130a.jpg","79","image-keyboard-response","390","300956","0.0-3.0-1.193","","","Update","o","true"
"null","<div style=""font-size:60px;"">+</div>","null","html-keyboard-response","391","301469","0.0-3.0-0.194","","fixation","","",""
"1063","Set1/022a.jpg","78","image-keyboard-response","392","302534","0.0-3.0-1.194","","","Set_1_Only","n","true"
"null","<div style=""font-size:60px;"">+</div>","null","html-keyboard-response","393","303050","0.0-3.0-0.195","","fixation","","",""
"1027","Set1/124a.jpg","78","image-keyboard-response","394","304077","0.0-3.0-1.195","","","Update","n","true"
"null","<div style=""font-size:60px;"">+</div>","null","html-keyboard-response","395","304584","0.0-3.0-0.196","","fixation","","",""
"867","Set1/068a.jpg","79","image-keyboard-response","396","305453","0.0-3.0-1.196","","","Repeat","o","true"
"null","<div style=""font-size:60px;"">+</div>","null","html-keyboard-response","397","305964","0.0-3.0-0.197","","fixation","","",""
"766","Set1/078a.jpg","79","image-keyboard-response","398","306732","0.0-3.0-1.197","","","Repeat","o","true"
"null","<div style=""font-size:60px;"">+</div>","null","html-keyboard-response","399","307231","0.0-3.0-0.198","","fixation","","",""
"579","Set1/137a.jpg","79","image-keyboard-response","400","307812","0.0-3.0-1.198","","","Update","o","true"
"null","<div style=""font-size:60px;"">+</div>","null","html-keyboard-response","401","308315","0.0-3.0-0.199","","fixation","","",""
"814","Set1/118a.jpg","78","image-keyboard-response","402","309133","0.0-3.0-1.199","","","Update","n","true"
"null","<div style=""font-size:60px;"">+</div>","null","html-keyboard-response","403","309649","0.0-3.0-0.200","","fixation","","",""
"603","Set1/149a.jpg","79","image-keyboard-response","404","310252","0.0-3.0-1.200","","","Update","o","true"
"null","<div style=""font-size:60px;"">+</div>","null","html-keyboard-response","405","310762","0.0-3.0-0.201","","fixation","","",""
"634","Set1/002a.jpg","79","image-keyboard-response","406","311398","0.0-3.0-1.201","","","Set_1_Only","o","true"
"null","<div style=""font-size:60px;"">+</div>","null","html-keyboard-response","407","311912","0.0-3.0-0.202","","fixation","","",""
"787","Set1/103a.jpg","79","image-keyboard-response","408","312701","0.0-3.0-1.202","","","Update","o","true"
"null","<div style=""font-size:60px;"">+</div>","null","html-keyboard-response","409","313213","0.0-3.0-0.203","","fixation","","",""
"680","Set1/012a.jpg","78","image-keyboard-response","410","313893","0.0-3.0-1.203","","","Set_1_Only","n","true"
"null","<div style=""font-size:60px;"">+</div>","null","html-keyboard-response","411","314394","0.0-3.0-0.204","","fixation","","",""
"800","Set1/104a.jpg","78","image-keyboard-response","412","315196","0.0-3.0-1.204","","","Update","n","true"
"null","<div style=""font-size:60px;"">+</div>","null","html-keyboard-response","413","315712","0.0-3.0-0.205","","fixation","","",""
"653","Set1/080a.jpg","78","image-keyboard-response","414","316365","0.0-3.0-1.205","","","Repeat","n","true"
"null","<div style=""font-size:60px;"">+</div>","null","html-keyboard-response","415","316879","0.0-3.0-0.206","","fixation","","",""
"661","Set1/040a.jpg","78","image-keyboard-response","416","317543","0.0-3.0-1.206","","","Repeat","n","true"
"null","<div style=""font-size:60px;"">+</div>","null","html-keyboard-response","417","318044","0.0-3.0-0.207","","fixation","","",""
"624","Set1/145a.jpg","78","image-keyboard-response","418","318668","0.0-3.0-1.207","","","Update","n","true"
"null","<div style=""font-size:60px;"">+</div>","null","html-keyboard-response","419","319177","0.0-3.0-0.208","","fixation","","",""
"649","Set1/004a.jpg","79","image-keyboard-response","420","319829","0.0-3.0-1.208","","","Set_1_Only","o","true"
"null","<div style=""font-size:60px;"">+</div>","null","html-keyboard-response","421","320346","0.0-3.0-0.209","","fixation","","",""
"883","Set1/073a.jpg","78","image-keyboard-response","422","321229","0.0-3.0-1.209","","","Repeat","n","true"
"null","<div style=""font-size:60px;"">+</div>","null","html-keyboard-response","423","321743","0.0-3.0-0.210","","fixation","","",""
"628","Set1/144a.jpg","79","image-keyboard-response","424","322371","0.0-3.0-1.210","","","Update","o","true"
"null","<div style=""font-size:60px;"">+</div>","null","html-keyboard-response","425","322876","0.0-3.0-0.211","","fixation","","",""
"864","Set1/145a.jpg","78","image-keyboard-response","426","323741","0.0-3.0-1.211","","","Update","o","false"
"null","<div style=""font-size:60px;"">+</div>","null","html-keyboard-response","427","324257","0.0-3.0-0.212","","fixation","","",""
"686","Set1/124a.jpg","79","image-keyboard-response","428","324943","0.0-3.0-1.212","","","Update","o","true"
"null","<div style=""font-size:60px;"">+</div>","null","html-keyboard-response","429","325459","0.0-3.0-0.213","","fixation","","",""
"695","Set1/040a.jpg","79","image-keyboard-response","430","326156","0.0-3.0-1.213","","","Repeat","o","true"
"null","<div style=""font-size:60px;"">+</div>","null","html-keyboard-response","431","326657","0.0-3.0-0.214","","fixation","","",""
"593","Set1/069a.jpg","79","image-keyboard-response","432","327252","0.0-3.0-1.214","","","Repeat","o","true"
"null","<div style=""font-size:60px;"">+</div>","null","html-keyboard-response","433","327755","0.0-3.0-0.215","","fixation","","",""
"825","Set1/143a.jpg","78","image-keyboard-response","434","328580","0.0-3.0-1.215","","","Update","n","true"
"null","<div style=""font-size:60px;"">+</div>","null","html-keyboard-response","435","329092","0.0-3.0-0.216","","fixation","","",""
"816","Set1/024a.jpg","79","image-keyboard-response","436","329908","0.0-3.0-1.216","","","Set_1_Only","o","true"
"null","<div style=""font-size:60px;"">+</div>","null","html-keyboard-response","437","330426","0.0-3.0-0.217","","fixation","","",""
"666","Set1/131a.jpg","79","image-keyboard-response","438","331094","0.0-3.0-1.217","","","Update","o","true"
"null","<div style=""font-size:60px;"">+</div>","null","html-keyboard-response","439","331605","0.0-3.0-0.218","","fixation","","",""
"839","Set1/094a.jpg","78","image-keyboard-response","440","332444","0.0-3.0-1.218","","","Repeat","n","true"
"null","<div style=""font-size:60px;"">+</div>","null","html-keyboard-response","441","332956","0.0-3.0-0.219","","fixation","","",""
"630","Set1/104a.jpg","79","image-keyboard-response","442","333590","0.0-3.0-1.219","","","Update","o","true"
"null","<div style=""font-size:60px;"">+</div>","null","html-keyboard-response","443","334104","0.0-3.0-0.220","","fixation","","",""
"820","Set1/080a.jpg","79","image-keyboard-response","444","334925","0.0-3.0-1.220","","","Repeat","o","true"
"null","<div style=""font-size:60px;"">+</div>","null","html-keyboard-response","445","335440","0.0-3.0-0.221","","fixation","","",""
"652","Set1/060a.jpg","79","image-keyboard-response","446","336094","0.0-3.0-1.221","","","Repeat","o","true"
"null","<div style=""font-size:60px;"">+</div>","null","html-keyboard-response","447","336601","0.0-3.0-0.222","","fixation","","",""
"770","Set1/129a.jpg","78","image-keyboard-response","448","337373","0.0-3.0-1.222","","","Update","o","false"
"null","<div style=""font-size:60px;"">+</div>","null","html-keyboard-response","449","337887","0.0-3.0-0.223","","fixation","","",""
"630","Set1/089a.jpg","79","image-keyboard-response","450","338517","0.0-3.0-1.223","","","Repeat","o","true"
"null","<div style=""font-size:60px;"">+</div>","null","html-keyboard-response","451","339019","0.0-3.0-0.224","","fixation","","",""
"655","Set1/159a.jpg","79","image-keyboard-response","452","339676","0.0-3.0-1.224","","","Update","o","true"
"null","<div style=""font-size:60px;"">+</div>","null","html-keyboard-response","453","340183","0.0-3.0-0.225","","fixation","","",""
"725","Set1/135a.jpg","78","image-keyboard-response","454","340910","0.0-3.0-1.225","","","Update","n","true"
"null","<div style=""font-size:60px;"">+</div>","null","html-keyboard-response","455","341419","0.0-3.0-0.226","","fixation","","",""
"593","Set1/116a.jpg","78","image-keyboard-response","456","342012","0.0-3.0-1.226","","","Update","n","true"
"null","<div style=""font-size:60px;"">+</div>","null","html-keyboard-response","457","342520","0.0-3.0-0.227","","fixation","","",""
"668","Set1/102a.jpg","79","image-keyboard-response","458","343190","0.0-3.0-1.227","","","Update","o","true"
"null","<div style=""font-size:60px;"">+</div>","null","html-keyboard-response","459","343701","0.0-3.0-0.228","","fixation","","",""
"758","Set1/022a.jpg","79","image-keyboard-response","460","344461","0.0-3.0-1.228","","","Set_1_Only","o","true"
"null","<div style=""font-size:60px;"">+</div>","null","html-keyboard-response","461","344968","0.0-3.0-0.229","","fixation","","",""
"844","Set1/094a.jpg","79","image-keyboard-response","462","345812","0.0-3.0-1.229","","","Repeat","o","true"
"null","<div style=""font-size:60px;"">+</div>","null","html-keyboard-response","463","346317","0.0-3.0-0.230","","fixation","","",""
"639","Set1/118a.jpg","79","image-keyboard-response","464","346956","0.0-3.0-1.230","","","Update","o","true"
"null","<div style=""font-size:60px;"">+</div>","null","html-keyboard-response","465","347465","0.0-3.0-0.231","","fixation","","",""
"1090","Set1/033a.jpg","79","image-keyboard-response","466","348557","0.0-3.0-1.231","","","Repeat","o","true"
"null","<div style=""font-size:60px;"">+</div>","null","html-keyboard-response","467","349064","0.0-3.0-0.232","","fixation","","",""
"675","Set1/117a.jpg","79","image-keyboard-response","468","349741","0.0-3.0-1.232","","","Update","o","true"
"null","<div style=""font-size:60px;"">+</div>","null","html-keyboard-response","469","350248","0.0-3.0-0.233","","fixation","","",""
"716","Set1/135a.jpg","79","image-keyboard-response","470","350964","0.0-3.0-1.233","","","Update","o","true"
"null","<div style=""font-size:60px;"">+</div>","null","html-keyboard-response","471","351478","0.0-3.0-0.234","","fixation","","",""
"599","Set1/116a.jpg","79","image-keyboard-response","472","352077","0.0-3.0-1.234","","","Update","o","true"
"null","<div style=""font-size:60px;"">+</div>","null","html-keyboard-response","473","352580","0.0-3.0-0.235","","fixation","","",""
"574","Set1/143a.jpg","79","image-keyboard-response","474","353156","0.0-3.0-1.235","","","Update","o","true"
"null","<div style=""font-size:60px;"">+</div>","null","html-keyboard-response","475","353662","0.0-3.0-0.236","","fixation","","",""
"655","Set1/074a.jpg","79","image-keyboard-response","476","354317","0.0-3.0-1.236","","","Repeat","o","true"
"null","<div style=""font-size:60px;"">+</div>","null","html-keyboard-response","477","354829","0.0-3.0-0.237","","fixation","","",""
"540","Set1/012a.jpg","79","image-keyboard-response","478","355373","0.0-3.0-1.237","","","Set_1_Only","o","true"
"null","<div style=""font-size:60px;"">+</div>","null","html-keyboard-response","479","355881","0.0-3.0-0.238","","fixation","","",""
"578","Set1/062a.jpg","79","image-keyboard-response","480","356461","0.0-3.0-1.238","","","Repeat","o","true"
"null","<div style=""font-size:60px;"">+</div>","null","html-keyboard-response","481","356975","0.0-3.0-0.239","","fixation","","",""
"563","Set1/073a.jpg","79","image-keyboard-response","482","357540","0.0-3.0-1.239","","","Repeat","o","true"
"null","<div style=""font-size:60px;"">+</div>","null","html-keyboard-response","483","358058","0.0-3.0-0.240","","fixation","","",""
"914","Set1/029a.jpg","78","image-keyboard-response","484","358973","0.0-3.0-1.240","","","Set_1_Only","n","true"
"null","<div style=""font-size:60px;"">+</div>","null","html-keyboard-response","485","359476","0.0-3.0-0.241","","fixation","","",""
"591","Set1/098a.jpg","78","image-keyboard-response","486","360069","0.0-3.0-1.241","","","Update","n","true"
"null","<div style=""font-size:60px;"">+</div>","null","html-keyboard-response","487","360576","0.0-3.0-0.242","","fixation","","",""
"820","Set1/086a.jpg","78","image-keyboard-response","488","361396","0.0-3.0-1.242","","","Repeat","n","true"
"null","<div style=""font-size:60px;"">+</div>","null","html-keyboard-response","489","361910","0.0-3.0-0.243","","fixation","","",""
"559","Set1/070a.jpg","78","image-keyboard-response","490","362469","0.0-3.0-1.243","","","Repeat","n","true"
"null","<div style=""font-size:60px;"">+</div>","null","html-keyboard-response","491","362975","0.0-3.0-0.244","","fixation","","",""
"1067","Set1/091a.jpg","78","image-keyboard-response","492","364046","0.0-3.0-1.244","","","Repeat","n","true"
"null","<div style=""font-size:60px;"">+</div>","null","html-keyboard-response","493","364557","0.0-3.0-0.245","","fixation","","",""
"737","Set1/043a.jpg","78","image-keyboard-response","494","365294","0.0-3.0-1.245","","","Repeat","n","true"
"null","<div style=""font-size:60px;"">+</div>","null","html-keyboard-response","495","365808","0.0-3.0-0.246","","fixation","","",""
"810","Set1/083a.jpg","78","image-keyboard-response","496","366622","0.0-3.0-1.246","","","Repeat","n","true"
"null","<div style=""font-size:60px;"">+</div>","null","html-keyboard-response","497","367123","0.0-3.0-0.247","","fixation","","",""
"641","Set1/011a.jpg","78","image-keyboard-response","498","367764","0.0-3.0-1.247","","","Set_1_Only","n","true"
"null","<div style=""font-size:60px;"">+</div>","null","html-keyboard-response","499","368273","0.0-3.0-0.248","","fixation","","",""
"625","Set1/142a.jpg","78","image-keyboard-response","500","368900","0.0-3.0-1.248","","","Update","n","true"
"null","<div style=""font-size:60px;"">+</div>","null","html-keyboard-response","501","369405","0.0-3.0-0.249","","fixation","","",""
"766","Set1/061a.jpg","78","image-keyboard-response","502","370173","0.0-3.0-1.249","","","Repeat","n","true"
"null","<div style=""font-size:60px;"">+</div>","null","html-keyboard-response","503","370689","0.0-3.0-0.250","","fixation","","",""
"849","Set1/007a.jpg","78","image-keyboard-response","504","371540","0.0-3.0-1.250","","","Set_1_Only","n","true"
"null","<div style=""font-size:60px;"">+</div>","null","html-keyboard-response","505","372054","0.0-3.0-0.251","","fixation","","",""
"948","Set1/039a.jpg","78","image-keyboard-response","506","373004","0.0-3.0-1.251","","","Repeat","n","true"
"null","<div style=""font-size:60px;"">+</div>","null","html-keyboard-response","507","373520","0.0-3.0-0.252","","fixation","","",""
"730","Set1/023a.jpg","78","image-keyboard-response","508","374252","0.0-3.0-1.252","","","Set_1_Only","n","true"
"null","<div style=""font-size:60px;"">+</div>","null","html-keyboard-response","509","374757","0.0-3.0-0.253","","fixation","","",""
"840","Set1/001a.jpg","78","image-keyboard-response","510","375597","0.0-3.0-1.253","","","Set_1_Only","n","true"
"null","<div style=""font-size:60px;"">+</div>","null","html-keyboard-response","511","376102","0.0-3.0-0.254","","fixation","","",""
"637","Set1/038a.jpg","78","image-keyboard-response","512","376741","0.0-3.0-1.254","","","Repeat","n","true"
"null","<div style=""font-size:60px;"">+</div>","null","html-keyboard-response","513","377254","0.0-3.0-0.255","","fixation","","",""
"614","Set1/126a.jpg","78","image-keyboard-response","514","377868","0.0-3.0-1.255","","","Update","n","true"
"null","<div style=""font-size:60px;"">+</div>","null","html-keyboard-response","515","378384","0.0-3.0-0.256","","fixation","","",""
"578","Set1/021a.jpg","78","image-keyboard-response","516","378964","0.0-3.0-1.256","","","Set_1_Only","n","true"
"null","<div style=""font-size:60px;"">+</div>","null","html-keyboard-response","517","379469","0.0-3.0-0.257","","fixation","","",""
"518","Set1/109a.jpg","78","image-keyboard-response","518","379989","0.0-3.0-1.257","","","Update","n","true"
"null","<div style=""font-size:60px;"">+</div>","null","html-keyboard-response","519","380501","0.0-3.0-0.258","","fixation","","",""
"632","Set1/099a.jpg","78","image-keyboard-response","520","381133","0.0-3.0-1.258","","","Update","n","true"
"null","<div style=""font-size:60px;"">+</div>","null","html-keyboard-response","521","381649","0.0-3.0-0.259","","fixation","","",""
"720","Set1/122a.jpg","78","image-keyboard-response","522","382373","0.0-3.0-1.259","","","Update","n","true"
"null","<div style=""font-size:60px;"">+</div>","null","html-keyboard-response","523","382883","0.0-3.0-0.260","","fixation","","",""
"774","Set1/023a.jpg","79","image-keyboard-response","524","383659","0.0-3.0-1.260","","","Set_1_Only","o","true"
"null","<div style=""font-size:60px;"">+</div>","null","html-keyboard-response","525","384165","0.0-3.0-0.261","","fixation","","",""
"597","Set1/017a.jpg","78","image-keyboard-response","526","384764","0.0-3.0-1.261","","","Set_1_Only","n","true"
"null","<div style=""font-size:60px;"">+</div>","null","html-keyboard-response","527","385265","0.0-3.0-0.262","","fixation","","",""
"618","Set1/132a.jpg","78","image-keyboard-response","528","385885","0.0-3.0-1.262","","","Update","n","true"
"null","<div style=""font-size:60px;"">+</div>","null","html-keyboard-response","529","386398","0.0-3.0-0.263","","fixation","","",""
"637","Set1/042a.jpg","78","image-keyboard-response","530","387037","0.0-3.0-1.263","","","Repeat","n","true"
"null","<div style=""font-size:60px;"">+</div>","null","html-keyboard-response","531","387549","0.0-3.0-0.264","","fixation","","",""
"774","Set1/087a.jpg","78","image-keyboard-response","532","388325","0.0-3.0-1.264","","","Repeat","n","true"
"null","<div style=""font-size:60px;"">+</div>","null","html-keyboard-response","533","388833","0.0-3.0-0.265","","fixation","","",""
"676","Set1/101a.jpg","78","image-keyboard-response","534","389509","0.0-3.0-1.265","","","Update","n","true"
"null","<div style=""font-size:60px;"">+</div>","null","html-keyboard-response","535","390012","0.0-3.0-0.266","","fixation","","",""
"606","Set1/066a.jpg","78","image-keyboard-response","536","390620","0.0-3.0-1.266","","","Repeat","n","true"
"null","<div style=""font-size:60px;"">+</div>","null","html-keyboard-response","537","391133","0.0-3.0-0.267","","fixation","","",""
"681","Set1/091a.jpg","79","image-keyboard-response","538","391814","0.0-3.0-1.267","","","Repeat","o","true"
"null","<div style=""font-size:60px;"">+</div>","null","html-keyboard-response","539","392327","0.0-3.0-0.268","","fixation","","",""
"774","Set1/077a.jpg","78","image-keyboard-response","540","393102","0.0-3.0-1.268","","","Repeat","n","true"
"null","<div style=""font-size:60px;"">+</div>","null","html-keyboard-response","541","393614","0.0-3.0-0.269","","fixation","","",""
"716","Set1/042a.jpg","79","image-keyboard-response","542","394332","0.0-3.0-1.269","","","Repeat","o","true"
"null","<div style=""font-size:60px;"">+</div>","null","html-keyboard-response","543","394847","0.0-3.0-0.270","","fixation","","",""
"645","Set1/018a.jpg","78","image-keyboard-response","544","395492","0.0-3.0-1.270","","","Set_1_Only","n","true"
"null","<div style=""font-size:60px;"">+</div>","null","html-keyboard-response","545","395995","0.0-3.0-0.271","","fixation","","",""
"655","Set1/058a.jpg","78","image-keyboard-response","546","396653","0.0-3.0-1.271","","","Repeat","n","true"
"null","<div style=""font-size:60px;"">+</div>","null","html-keyboard-response","547","397163","0.0-3.0-0.272","","fixation","","",""
"657","Set1/132a.jpg","79","image-keyboard-response","548","397820","0.0-3.0-1.272","","","Update","o","true"
"null","<div style=""font-size:60px;"">+</div>","null","html-keyboard-response","549","398325","0.0-3.0-0.273","","fixation","","",""
"598","Set1/038a.jpg","79","image-keyboard-response","550","398925","0.0-3.0-1.273","","","Repeat","o","true"
"null","<div style=""font-size:60px;"">+</div>","null","html-keyboard-response","551","399440","0.0-3.0-0.274","","fixation","","",""
"568","Set1/066a.jpg","79","image-keyboard-response","552","400010","0.0-3.0-1.274","","","Repeat","o","true"
"null","<div style=""font-size:60px;"">+</div>","null","html-keyboard-response","553","400509","0.0-3.0-0.275","","fixation","","",""
"533","Set1/099a.jpg","79","image-keyboard-response","554","401044","0.0-3.0-1.275","","","Update","o","true"
"null","<div style=""font-size:60px;"">+</div>","null","html-keyboard-response","555","401559","0.0-3.0-0.276","","fixation","","",""
"618","Set1/126a.jpg","79","image-keyboard-response","556","402181","0.0-3.0-1.276","","","Update","o","true"
"null","<div style=""font-size:60px;"">+</div>","null","html-keyboard-response","557","402691","0.0-3.0-0.277","","fixation","","",""
"743","Set1/009a.jpg","78","image-keyboard-response","558","403436","0.0-3.0-1.277","","","Set_1_Only","n","true"
"null","<div style=""font-size:60px;"">+</div>","null","html-keyboard-response","559","403941","0.0-3.0-0.278","","fixation","","",""
"852","Set1/046a.jpg","78","image-keyboard-response","560","404797","0.0-3.0-1.278","","","Repeat","n","true"
"null","<div style=""font-size:60px;"">+</div>","null","html-keyboard-response","561","405307","0.0-3.0-0.279","","fixation","","",""
"616","Set1/039a.jpg","79","image-keyboard-response","562","405925","0.0-3.0-1.279","","","Repeat","o","true"
"null","<div style=""font-size:60px;"">+</div>","null","html-keyboard-response","563","406442","0.0-3.0-0.280","","fixation","","",""
"785","Set1/001a.jpg","79","image-keyboard-response","564","407229","0.0-3.0-1.280","","","Set_1_Only","o","true"
"null","<div style=""font-size:60px;"">+</div>","null","html-keyboard-response","565","407741","0.0-3.0-0.281","","fixation","","",""
"591","Set1/122a.jpg","79","image-keyboard-response","566","408332","0.0-3.0-1.281","","","Update","o","true"
"null","<div style=""font-size:60px;"">+</div>","null","html-keyboard-response","567","408839","0.0-3.0-0.282","","fixation","","",""
"572","Set1/086a.jpg","79","image-keyboard-response","568","409413","0.0-3.0-1.282","","","Repeat","o","true"
"null","<div style=""font-size:60px;"">+</div>","null","html-keyboard-response","569","409925","0.0-3.0-0.283","","fixation","","",""
"701","Set1/046a.jpg","78","image-keyboard-response","570","410630","0.0-3.0-1.283","","","Repeat","o","false"
"null","<div style=""font-size:60px;"">+</div>","null","html-keyboard-response","571","411138","0.0-3.0-0.284","","fixation","","",""
"584","Set1/043a.jpg","79","image-keyboard-response","572","411724","0.0-3.0-1.284","","","Repeat","o","true"
"null","<div style=""font-size:60px;"">+</div>","null","html-keyboard-response","573","412240","0.0-3.0-0.285","","fixation","","",""
"789","Set1/016a.jpg","78","image-keyboard-response","574","413029","0.0-3.0-1.285","","","Set_1_Only","n","true"
"null","<div style=""font-size:60px;"">+</div>","null","html-keyboard-response","575","413540","0.0-3.0-0.286","","fixation","","",""
"846","Set1/090a.jpg","78","image-keyboard-response","576","414388","0.0-3.0-1.286","","","Repeat","n","true"
"null","<div style=""font-size:60px;"">+</div>","null","html-keyboard-response","577","414904","0.0-3.0-0.287","","fixation","","",""
"691","Set1/141a.jpg","78","image-keyboard-response","578","415597","0.0-3.0-1.287","","","Update","n","true"
"null","<div style=""font-size:60px;"">+</div>","null","html-keyboard-response","579","416102","0.0-3.0-0.288","","fixation","","",""
"708","Set1/090a.jpg","79","image-keyboard-response","580","416812","0.0-3.0-1.288","","","Repeat","o","true"
"null","<div style=""font-size:60px;"">+</div>","null","html-keyboard-response","581","417319","0.0-3.0-0.289","","fixation","","",""
"739","Set1/139a.jpg","78","image-keyboard-response","582","418060","0.0-3.0-1.289","","","Update","n","true"
"null","<div style=""font-size:60px;"">+</div>","null","html-keyboard-response","583","418570","0.0-3.0-0.290","","fixation","","",""
"659","Set1/101a.jpg","79","image-keyboard-response","584","419229","0.0-3.0-1.290","","","Update","o","true"
"null","<div style=""font-size:60px;"">+</div>","null","html-keyboard-response","585","419735","0.0-3.0-0.291","","fixation","","",""
"701","Set1/092a.jpg","78","image-keyboard-response","586","420436","0.0-3.0-1.291","","","Repeat","n","true"
"null","<div style=""font-size:60px;"">+</div>","null","html-keyboard-response","587","420950","0.0-3.0-0.292","","fixation","","",""
"580","Set1/087a.jpg","79","image-keyboard-response","588","421532","0.0-3.0-1.292","","","Repeat","o","true"
"null","<div style=""font-size:60px;"">+</div>","null","html-keyboard-response","589","422050","0.0-3.0-0.293","","fixation","","",""
"584","Set1/034a.jpg","78","image-keyboard-response","590","422636","0.0-3.0-1.293","","","Repeat","n","true"
"null","<div style=""font-size:60px;"">+</div>","null","html-keyboard-response","591","423150","0.0-3.0-0.294","","fixation","","",""
"631","Set1/153a.jpg","78","image-keyboard-response","592","423781","0.0-3.0-1.294","","","Update","n","true"
"null","<div style=""font-size:60px;"">+</div>","null","html-keyboard-response","593","424284","0.0-3.0-0.295","","fixation","","",""
"693","Set1/092a.jpg","79","image-keyboard-response","594","424979","0.0-3.0-1.295","","","Repeat","o","true"
"null","<div style=""font-size:60px;"">+</div>","null","html-keyboard-response","595","425482","0.0-3.0-0.296","","fixation","","",""
"898","Set1/077a.jpg","78","image-keyboard-response","596","426380","0.0-3.0-1.296","","","Repeat","o","false"
"null","<div style=""font-size:60px;"">+</div>","null","html-keyboard-response","597","426883","0.0-3.0-0.297","","fixation","","",""
"1015","Set1/112a.jpg","78","image-keyboard-response","598","427900","0.0-3.0-1.297","","","Update","n","true"
"null","<div style=""font-size:60px;"">+</div>","null","html-keyboard-response","599","428415","0.0-3.0-0.298","","fixation","","",""
"700","Set1/018a.jpg","79","image-keyboard-response","600","429115","0.0-3.0-1.298","","","Set_1_Only","o","true"
"null","<div style=""font-size:60px;"">+</div>","null","html-keyboard-response","601","429632","0.0-3.0-0.299","","fixation","","",""
"691","Set1/139a.jpg","79","image-keyboard-response","602","430325","0.0-3.0-1.299","","","Update","o","true"
"null","<div style=""font-size:60px;"">+</div>","null","html-keyboard-response","603","430831","0.0-3.0-0.300","","fixation","","",""
"659","Set1/153a.jpg","79","image-keyboard-response","604","431492","0.0-3.0-1.300","","","Update","o","true"
"null","<div style=""font-size:60px;"">+</div>","null","html-keyboard-response","605","431996","0.0-3.0-0.301","","fixation","","",""
"563","Set1/017a.jpg","79","image-keyboard-response","606","432559","0.0-3.0-1.301","","","Set_1_Only","o","true"
"null","<div style=""font-size:60px;"">+</div>","null","html-keyboard-response","607","433064","0.0-3.0-0.302","","fixation","","",""
"771","Set1/112a.jpg","79","image-keyboard-response","608","433835","0.0-3.0-1.302","","","Update","o","true"
"null","<div style=""font-size:60px;"">+</div>","null","html-keyboard-response","609","434348","0.0-3.0-0.303","","fixation","","",""
"641","Set1/109a.jpg","79","image-keyboard-response","610","434989","0.0-3.0-1.303","","","Update","o","true"
"null","<div style=""font-size:60px;"">+</div>","null","html-keyboard-response","611","435495","0.0-3.0-0.304","","fixation","","",""
"549","Set1/021a.jpg","79","image-keyboard-response","612","436044","0.0-3.0-1.304","","","Set_1_Only","o","true"
"null","<div style=""font-size:60px;"">+</div>","null","html-keyboard-response","613","436545","0.0-3.0-0.305","","fixation","","",""
"497","Set1/142a.jpg","79","image-keyboard-response","614","437044","0.0-3.0-1.305","","","Update","o","true"
"null","<div style=""font-size:60px;"">+</div>","null","html-keyboard-response","615","437559","0.0-3.0-0.306","","fixation","","",""
"787","Set1/113a.jpg","78","image-keyboard-response","616","438348","0.0-3.0-1.306","","","Update","n","true"
"null","<div style=""font-size:60px;"">+</div>","null","html-keyboard-response","617","438862","0.0-3.0-0.307","","fixation","","",""
"614","Set1/016a.jpg","79","image-keyboard-response","618","439476","0.0-3.0-1.307","","","Set_1_Only","o","true"
"null","<div style=""font-size:60px;"">+</div>","null","html-keyboard-response","619","439991","0.0-3.0-0.308","","fixation","","",""
"683","Set1/061a.jpg","79","image-keyboard-response","620","440676","0.0-3.0-1.308","","","Repeat","o","true"
"null","<div style=""font-size:60px;"">+</div>","null","html-keyboard-response","621","441192","0.0-3.0-0.309","","fixation","","",""
"603","Set1/009a.jpg","79","image-keyboard-response","622","441797","0.0-3.0-1.309","","","Set_1_Only","o","true"
"null","<div style=""font-size:60px;"">+</div>","null","html-keyboard-response","623","442309","0.0-3.0-0.310","","fixation","","",""
"545","Set1/141a.jpg","79","image-keyboard-response","624","442862","0.0-3.0-1.310","","","Update","o","true"
"null","<div style=""font-size:60px;"">+</div>","null","html-keyboard-response","625","443376","0.0-3.0-0.311","","fixation","","",""
"505","Set1/011a.jpg","79","image-keyboard-response","626","443885","0.0-3.0-1.311","","","Set_1_Only","o","true"
"null","<div style=""font-size:60px;"">+</div>","null","html-keyboard-response","627","444392","0.0-3.0-0.312","","fixation","","",""
"524","Set1/113a.jpg","79","image-keyboard-response","628","444916","0.0-3.0-1.312","","","Update","o","true"
"null","<div style=""font-size:60px;"">+</div>","null","html-keyboard-response","629","445426","0.0-3.0-0.313","","fixation","","",""
"712","Set1/058a.jpg","79","image-keyboard-response","630","446140","0.0-3.0-1.313","","","Repeat","o","true"
"null","<div style=""font-size:60px;"">+</div>","null","html-keyboard-response","631","446653","0.0-3.0-0.314","","fixation","","",""
"677","Set1/083a.jpg","79","image-keyboard-response","632","447332","0.0-3.0-1.314","","","Repeat","o","true"
"null","<div style=""font-size:60px;"">+</div>","null","html-keyboard-response","633","447839","0.0-3.0-0.315","","fixation","","",""
"1029","Set1/029a.jpg","79","image-keyboard-response","634","448868","0.0-3.0-1.315","","","Set_1_Only","o","true"
"null","<div style=""font-size:60px;"">+</div>","null","html-keyboard-response","635","449373","0.0-3.0-0.316","","fixation","","",""
"518","Set1/034a.jpg","79","image-keyboard-response","636","449893","0.0-3.0-1.316","","","Repeat","o","true"
"null","<div style=""font-size:60px;"">+</div>","null","html-keyboard-response","637","450405","0.0-3.0-0.317","","fixation","","",""
"478","Set1/070a.jpg","79","image-keyboard-response","638","450885","0.0-3.0-1.317","","","Repeat","o","true"
"null","<div style=""font-size:60px;"">+</div>","null","html-keyboard-response","639","451388","0.0-3.0-0.318","","fixation","","",""
"591","Set1/098a.jpg","79","image-keyboard-response","640","451981","0.0-3.0-1.318","","","Update","o","true"
"null","<div style=""font-size:60px;"">+</div>","null","html-keyboard-response","641","452490","0.0-3.0-0.319","","fixation","","",""
"675","Set1/007a.jpg","79","image-keyboard-response","642","453165","0.0-3.0-1.319","","","Set_1_Only","o","true"
