"rt","stimulus","key_press","trial_type","trial_index","time_elapsed","internal_node_id","responses","test_part","stim_type","correct_response","correct"
"124735","Press any key to begin.","32","html-keyboard-response","0","124771","0.0-0.0","","","","",""
"17346","","","survey-text","1","142123","0.0-1.0","{""Q0"":""Set1_128716"",""Q1"":""""}","","","",""
"101763","<p>In this experiment you will see a series of everyday objects presented one at a time at the center of the screen. Each image will be presented twice. </p><p>The first time you see the image, press the N key to indicate that it is a NEW image. The second time you see the image, press the O key to indicate that it is an OLD image.</p><div style='width: 700px;'></div><p>Press any key to begin.</p>","32","html-keyboard-response","2","243888","0.0-2.0","","","","",""
"null","<div style=""font-size:60px;"">+</div>","null","html-keyboard-response","3","246393","0.0-3.0-0.0","","fixation","","",""
"2548","Set1/063a.jpg","78","image-keyboard-response","4","248945","0.0-3.0-1.0","","","Repeat","n","true"
"null","<div style=""font-size:60px;"">+</div>","null","html-keyboard-response","5","249458","0.0-3.0-0.1","","fixation","","",""
"780","Set1/064a.jpg","78","image-keyboard-response","6","250240","0.0-3.0-1.1","","","Repeat","n","true"
"null","<div style=""font-size:60px;"">+</div>","null","html-keyboard-response","7","250741","0.0-3.0-0.2","","fixation","","",""
"513","Set1/047a.jpg","78","image-keyboard-response","8","251256","0.0-3.0-1.2","","","Repeat","n","true"
"null","<div style=""font-size:60px;"">+</div>","null","html-keyboard-response","9","251762","0.0-3.0-0.3","","fixation","","",""
"484","Set1/025a.jpg","78","image-keyboard-response","10","252248","0.0-3.0-1.3","","","Set_1_Only","n","true"
"null","<div style=""font-size:60px;"">+</div>","null","html-keyboard-response","11","252750","0.0-3.0-0.4","","fixation","","",""
"552","Set1/146a.jpg","78","image-keyboard-response","12","253304","0.0-3.0-1.4","","","Update","n","true"
"null","<div style=""font-size:60px;"">+</div>","null","html-keyboard-response","13","253815","0.0-3.0-0.5","","fixation","","",""
"640","Set1/020a.jpg","78","image-keyboard-response","14","254456","0.0-3.0-1.5","","","Set_1_Only","n","true"
"null","<div style=""font-size:60px;"">+</div>","null","html-keyboard-response","15","254958","0.0-3.0-0.6","","fixation","","",""
"881","Set1/120a.jpg","78","image-keyboard-response","16","255840","0.0-3.0-1.6","","","Update","n","true"
"null","<div style=""font-size:60px;"">+</div>","null","html-keyboard-response","17","256355","0.0-3.0-0.7","","fixation","","",""
"580","Set1/148a.jpg","78","image-keyboard-response","18","256936","0.0-3.0-1.7","","","Update","n","true"
"null","<div style=""font-size:60px;"">+</div>","null","html-keyboard-response","19","257441","0.0-3.0-0.8","","fixation","","",""
"701","Set1/028a.jpg","78","image-keyboard-response","20","258144","0.0-3.0-1.8","","","Set_1_Only","n","true"
"null","<div style=""font-size:60px;"">+</div>","null","html-keyboard-response","21","258647","0.0-3.0-0.9","","fixation","","",""
"648","Set1/071a.jpg","78","image-keyboard-response","22","259296","0.0-3.0-1.9","","","Repeat","n","true"
"null","<div style=""font-size:60px;"">+</div>","null","html-keyboard-response","23","259812","0.0-3.0-0.10","","fixation","","",""
"595","Set1/030a.jpg","78","image-keyboard-response","24","260408","0.0-3.0-1.10","","","Set_1_Only","n","true"
"null","<div style=""font-size:60px;"">+</div>","null","html-keyboard-response","25","260914","0.0-3.0-0.11","","fixation","","",""
"501","Set1/037a.jpg","78","image-keyboard-response","26","261416","0.0-3.0-1.11","","","Repeat","n","true"
"null","<div style=""font-size:60px;"">+</div>","null","html-keyboard-response","27","261928","0.0-3.0-0.12","","fixation","","",""
"478","Set1/120a.jpg","78","image-keyboard-response","28","262408","0.0-3.0-1.12","","","Update","o","false"
"null","<div style=""font-size:60px;"">+</div>","null","html-keyboard-response","29","262915","0.0-3.0-0.13","","fixation","","",""
"732","Set1/005a.jpg","78","image-keyboard-response","30","263648","0.0-3.0-1.13","","","Set_1_Only","n","true"
"null","<div style=""font-size:60px;"">+</div>","null","html-keyboard-response","31","264153","0.0-3.0-0.14","","fixation","","",""
"750","Set1/079a.jpg","78","image-keyboard-response","32","264904","0.0-3.0-1.14","","","Repeat","n","true"
"null","<div style=""font-size:60px;"">+</div>","null","html-keyboard-response","33","265407","0.0-3.0-0.15","","fixation","","",""
"599","Set1/136a.jpg","78","image-keyboard-response","34","266008","0.0-3.0-1.15","","","Update","n","true"
"null","<div style=""font-size:60px;"">+</div>","null","html-keyboard-response","35","266513","0.0-3.0-0.16","","fixation","","",""
"null","Set1/133a.jpg","null","image-keyboard-response","36","276516","0.0-3.0-1.16","","","Update","n","false"
"null","<div style=""font-size:60px;"">+</div>","null","html-keyboard-response","37","277025","0.0-3.0-0.17","","fixation","","",""
"1542","Set1/128a.jpg","78","image-keyboard-response","38","278569","0.0-3.0-1.17","","","Update","n","true"
"null","<div style=""font-size:60px;"">+</div>","null","html-keyboard-response","39","279078","0.0-3.0-0.18","","fixation","","",""
"640","Set1/054a.jpg","78","image-keyboard-response","40","279720","0.0-3.0-1.18","","","Repeat","n","true"
"null","<div style=""font-size:60px;"">+</div>","null","html-keyboard-response","41","280225","0.0-3.0-0.19","","fixation","","",""
"527","Set1/108a.jpg","78","image-keyboard-response","42","280752","0.0-3.0-1.19","","","Update","n","true"
"null","<div style=""font-size:60px;"">+</div>","null","html-keyboard-response","43","281257","0.0-3.0-0.20","","fixation","","",""
"757","Set1/050a.jpg","78","image-keyboard-response","44","282016","0.0-3.0-1.20","","","Repeat","n","true"
"null","<div style=""font-size:60px;"">+</div>","null","html-keyboard-response","45","282518","0.0-3.0-0.21","","fixation","","",""
"641","Set1/140a.jpg","78","image-keyboard-response","46","283160","0.0-3.0-1.21","","","Update","n","true"
"null","<div style=""font-size:60px;"">+</div>","null","html-keyboard-response","47","283662","0.0-3.0-0.22","","fixation","","",""
"665","Set1/051a.jpg","78","image-keyboard-response","48","284328","0.0-3.0-1.22","","","Repeat","n","true"
"null","<div style=""font-size:60px;"">+</div>","null","html-keyboard-response","49","284841","0.0-3.0-0.23","","fixation","","",""
"581","Set1/063a.jpg","79","image-keyboard-response","50","285424","0.0-3.0-1.23","","","Repeat","o","true"
"null","<div style=""font-size:60px;"">+</div>","null","html-keyboard-response","51","285938","0.0-3.0-0.24","","fixation","","",""
"null","Set1/006a.jpg","null","image-keyboard-response","52","295952","0.0-3.0-1.24","","","Set_1_Only","n","false"
"null","<div style=""font-size:60px;"">+</div>","null","html-keyboard-response","53","296456","0.0-3.0-0.25","","fixation","","",""
"1247","Set1/158a.jpg","78","image-keyboard-response","54","297705","0.0-3.0-1.25","","","Update","n","true"
"null","<div style=""font-size:60px;"">+</div>","null","html-keyboard-response","55","298207","0.0-3.0-0.26","","fixation","","",""
"512","Set1/020a.jpg","78","image-keyboard-response","56","298720","0.0-3.0-1.26","","","Set_1_Only","o","false"
"null","<div style=""font-size:60px;"">+</div>","null","html-keyboard-response","57","299223","0.0-3.0-0.27","","fixation","","",""
"680","Set1/082a.jpg","78","image-keyboard-response","58","299904","0.0-3.0-1.27","","","Repeat","n","true"
"null","<div style=""font-size:60px;"">+</div>","null","html-keyboard-response","59","300408","0.0-3.0-0.28","","fixation","","",""
"639","Set1/107a.jpg","78","image-keyboard-response","60","301048","0.0-3.0-1.28","","","Update","n","true"
"null","<div style=""font-size:60px;"">+</div>","null","html-keyboard-response","61","301563","0.0-3.0-0.29","","fixation","","",""
"1260","Set1/121a.jpg","78","image-keyboard-response","62","302824","0.0-3.0-1.29","","","Update","n","true"
"null","<div style=""font-size:60px;"">+</div>","null","html-keyboard-response","63","303339","0.0-3.0-0.30","","fixation","","",""
"828","Set1/085a.jpg","78","image-keyboard-response","64","304168","0.0-3.0-1.30","","","Repeat","n","true"
"null","<div style=""font-size:60px;"">+</div>","null","html-keyboard-response","65","304669","0.0-3.0-0.31","","fixation","","",""
"705","Set1/136a.jpg","79","image-keyboard-response","66","305376","0.0-3.0-1.31","","","Update","o","true"
"null","<div style=""font-size:60px;"">+</div>","null","html-keyboard-response","67","305888","0.0-3.0-0.32","","fixation","","",""
"854","Set1/049a.jpg","78","image-keyboard-response","68","306744","0.0-3.0-1.32","","","Repeat","n","true"
"null","<div style=""font-size:60px;"">+</div>","null","html-keyboard-response","69","307258","0.0-3.0-0.33","","fixation","","",""
"941","Set1/133a.jpg","79","image-keyboard-response","70","308201","0.0-3.0-1.33","","","Update","o","true"
"null","<div style=""font-size:60px;"">+</div>","null","html-keyboard-response","71","308703","0.0-3.0-0.34","","fixation","","",""
"1200","Set1/093a.jpg","78","image-keyboard-response","72","309904","0.0-3.0-1.34","","","Repeat","n","true"
"null","<div style=""font-size:60px;"">+</div>","null","html-keyboard-response","73","310409","0.0-3.0-0.35","","fixation","","",""
"1222","Set1/064a.jpg","79","image-keyboard-response","74","311632","0.0-3.0-1.35","","","Repeat","o","true"
"null","<div style=""font-size:60px;"">+</div>","null","html-keyboard-response","75","312140","0.0-3.0-0.36","","fixation","","",""
"666","Set1/005a.jpg","79","image-keyboard-response","76","312808","0.0-3.0-1.36","","","Set_1_Only","o","true"
"null","<div style=""font-size:60px;"">+</div>","null","html-keyboard-response","77","313323","0.0-3.0-0.37","","fixation","","",""
"590","Set1/128a.jpg","79","image-keyboard-response","78","313914","0.0-3.0-1.37","","","Update","o","true"
"null","<div style=""font-size:60px;"">+</div>","null","html-keyboard-response","79","314423","0.0-3.0-0.38","","fixation","","",""
"null","Set1/044a.jpg","null","image-keyboard-response","80","324436","0.0-3.0-1.38","","","Repeat","n","false"
"null","<div style=""font-size:60px;"">+</div>","null","html-keyboard-response","81","324952","0.0-3.0-0.39","","fixation","","",""
"1243","Set1/037a.jpg","78","image-keyboard-response","82","326198","0.0-3.0-1.39","","","Repeat","o","false"
"null","<div style=""font-size:60px;"">+</div>","null","html-keyboard-response","83","326704","0.0-3.0-0.40","","fixation","","",""
"836","Set1/088a.jpg","78","image-keyboard-response","84","327541","0.0-3.0-1.40","","","Repeat","n","true"
"null","<div style=""font-size:60px;"">+</div>","null","html-keyboard-response","85","328044","0.0-3.0-0.41","","fixation","","",""
"776","Set1/106a.jpg","78","image-keyboard-response","86","328821","0.0-3.0-1.41","","","Update","n","true"
"null","<div style=""font-size:60px;"">+</div>","null","html-keyboard-response","87","329337","0.0-3.0-0.42","","fixation","","",""
"739","Set1/031a.jpg","78","image-keyboard-response","88","330077","0.0-3.0-1.42","","","Set_1_Only","n","true"
"null","<div style=""font-size:60px;"">+</div>","null","html-keyboard-response","89","330586","0.0-3.0-0.43","","fixation","","",""
"1122","Set1/160a.jpg","78","image-keyboard-response","90","331709","0.0-3.0-1.43","","","Update","n","true"
"null","<div style=""font-size:60px;"">+</div>","null","html-keyboard-response","91","332221","0.0-3.0-0.44","","fixation","","",""
"655","Set1/025a.jpg","79","image-keyboard-response","92","332877","0.0-3.0-1.44","","","Set_1_Only","o","true"
"null","<div style=""font-size:60px;"">+</div>","null","html-keyboard-response","93","333386","0.0-3.0-0.45","","fixation","","",""
"1273","Set1/088a.jpg","79","image-keyboard-response","94","334661","0.0-3.0-1.45","","","Repeat","o","true"
"null","<div style=""font-size:60px;"">+</div>","null","html-keyboard-response","95","335168","0.0-3.0-0.46","","fixation","","",""
"619","Set1/093a.jpg","79","image-keyboard-response","96","335789","0.0-3.0-1.46","","","Repeat","o","true"
"null","<div style=""font-size:60px;"">+</div>","null","html-keyboard-response","97","336302","0.0-3.0-0.47","","fixation","","",""
"582","Set1/054a.jpg","79","image-keyboard-response","98","336886","0.0-3.0-1.47","","","Repeat","o","true"
"null","<div style=""font-size:60px;"">+</div>","null","html-keyboard-response","99","337402","0.0-3.0-0.48","","fixation","","",""
"658","Set1/105a.jpg","78","image-keyboard-response","100","338061","0.0-3.0-1.48","","","Update","n","true"
"null","<div style=""font-size:60px;"">+</div>","null","html-keyboard-response","101","338563","0.0-3.0-0.49","","fixation","","",""
"761","Set1/045a.jpg","78","image-keyboard-response","102","339325","0.0-3.0-1.49","","","Repeat","n","true"
"null","<div style=""font-size:60px;"">+</div>","null","html-keyboard-response","103","339834","0.0-3.0-0.50","","fixation","","",""
"858","Set1/006a.jpg","78","image-keyboard-response","104","340693","0.0-3.0-1.50","","","Set_1_Only","o","false"
"null","<div style=""font-size:60px;"">+</div>","null","html-keyboard-response","105","341202","0.0-3.0-0.51","","fixation","","",""
"666","Set1/140a.jpg","79","image-keyboard-response","106","341869","0.0-3.0-1.51","","","Update","o","true"
"null","<div style=""font-size:60px;"">+</div>","null","html-keyboard-response","107","342386","0.0-3.0-0.52","","fixation","","",""
"819","Set1/027a.jpg","78","image-keyboard-response","108","343205","0.0-3.0-1.52","","","Set_1_Only","n","true"
"null","<div style=""font-size:60px;"">+</div>","null","html-keyboard-response","109","343716","0.0-3.0-0.53","","fixation","","",""
"680","Set1/049a.jpg","79","image-keyboard-response","110","344397","0.0-3.0-1.53","","","Repeat","o","true"
"null","<div style=""font-size:60px;"">+</div>","null","html-keyboard-response","111","344906","0.0-3.0-0.54","","fixation","","",""
"746","Set1/051a.jpg","79","image-keyboard-response","112","345653","0.0-3.0-1.54","","","Repeat","o","true"
"null","<div style=""font-size:60px;"">+</div>","null","html-keyboard-response","113","346169","0.0-3.0-0.55","","fixation","","",""
"811","Set1/028a.jpg","79","image-keyboard-response","114","346981","0.0-3.0-1.55","","","Set_1_Only","o","true"
"null","<div style=""font-size:60px;"">+</div>","null","html-keyboard-response","115","347483","0.0-3.0-0.56","","fixation","","",""
"961","Set1/047a.jpg","79","image-keyboard-response","116","348445","0.0-3.0-1.56","","","Repeat","o","true"
"null","<div style=""font-size:60px;"">+</div>","null","html-keyboard-response","117","348951","0.0-3.0-0.57","","fixation","","",""
"741","Set1/071a.jpg","79","image-keyboard-response","118","349693","0.0-3.0-1.57","","","Repeat","o","true"
"null","<div style=""font-size:60px;"">+</div>","null","html-keyboard-response","119","350204","0.0-3.0-0.58","","fixation","","",""
"760","Set1/108a.jpg","79","image-keyboard-response","120","350965","0.0-3.0-1.58","","","Update","o","true"
"null","<div style=""font-size:60px;"">+</div>","null","html-keyboard-response","121","351471","0.0-3.0-0.59","","fixation","","",""
"693","Set1/027a.jpg","79","image-keyboard-response","122","352165","0.0-3.0-1.59","","","Set_1_Only","o","true"
"null","<div style=""font-size:60px;"">+</div>","null","html-keyboard-response","123","352675","0.0-3.0-0.60","","fixation","","",""
"705","Set1/044a.jpg","78","image-keyboard-response","124","353381","0.0-3.0-1.60","","","Repeat","o","false"
"null","<div style=""font-size:60px;"">+</div>","null","html-keyboard-response","125","353897","0.0-3.0-0.61","","fixation","","",""
"731","Set1/045a.jpg","79","image-keyboard-response","126","354629","0.0-3.0-1.61","","","Repeat","o","true"
"null","<div style=""font-size:60px;"">+</div>","null","html-keyboard-response","127","355135","0.0-3.0-0.62","","fixation","","",""
"806","Set1/134a.jpg","78","image-keyboard-response","128","355941","0.0-3.0-1.62","","","Update","n","true"
"null","<div style=""font-size:60px;"">+</div>","null","html-keyboard-response","129","356454","0.0-3.0-0.63","","fixation","","",""
"783","Set1/158a.jpg","79","image-keyboard-response","130","357238","0.0-3.0-1.63","","","Update","o","true"
"null","<div style=""font-size:60px;"">+</div>","null","html-keyboard-response","131","357746","0.0-3.0-0.64","","fixation","","",""
"650","Set1/106a.jpg","79","image-keyboard-response","132","358398","0.0-3.0-1.64","","","Update","o","true"
"null","<div style=""font-size:60px;"">+</div>","null","html-keyboard-response","133","358907","0.0-3.0-0.65","","fixation","","",""
"793","Set1/119a.jpg","78","image-keyboard-response","134","359701","0.0-3.0-1.65","","","Update","n","true"
"null","<div style=""font-size:60px;"">+</div>","null","html-keyboard-response","135","360204","0.0-3.0-0.66","","fixation","","",""
"824","Set1/105a.jpg","79","image-keyboard-response","136","361029","0.0-3.0-1.66","","","Update","o","true"
"null","<div style=""font-size:60px;"">+</div>","null","html-keyboard-response","137","361533","0.0-3.0-0.67","","fixation","","",""
"631","Set1/119a.jpg","79","image-keyboard-response","138","362165","0.0-3.0-1.67","","","Update","o","true"
"null","<div style=""font-size:60px;"">+</div>","null","html-keyboard-response","139","362667","0.0-3.0-0.68","","fixation","","",""
"681","Set1/148a.jpg","79","image-keyboard-response","140","363349","0.0-3.0-1.68","","","Update","o","true"
"null","<div style=""font-size:60px;"">+</div>","null","html-keyboard-response","141","363852","0.0-3.0-0.69","","fixation","","",""
"647","Set1/031a.jpg","78","image-keyboard-response","142","364501","0.0-3.0-1.69","","","Set_1_Only","o","false"
"null","<div style=""font-size:60px;"">+</div>","null","html-keyboard-response","143","365004","0.0-3.0-0.70","","fixation","","",""
"656","Set1/050a.jpg","79","image-keyboard-response","144","365661","0.0-3.0-1.70","","","Repeat","o","true"
"null","<div style=""font-size:60px;"">+</div>","null","html-keyboard-response","145","366171","0.0-3.0-0.71","","fixation","","",""
"681","Set1/082a.jpg","79","image-keyboard-response","146","366853","0.0-3.0-1.71","","","Repeat","o","true"
"null","<div style=""font-size:60px;"">+</div>","null","html-keyboard-response","147","367370","0.0-3.0-0.72","","fixation","","",""
"651","Set1/085a.jpg","79","image-keyboard-response","148","368022","0.0-3.0-1.72","","","Repeat","o","true"
"null","<div style=""font-size:60px;"">+</div>","null","html-keyboard-response","149","368524","0.0-3.0-0.73","","fixation","","",""
"544","Set1/030a.jpg","79","image-keyboard-response","150","369069","0.0-3.0-1.73","","","Set_1_Only","o","true"
"null","<div style=""font-size:60px;"">+</div>","null","html-keyboard-response","151","369571","0.0-3.0-0.74","","fixation","","",""
"521","Set1/160a.jpg","79","image-keyboard-response","152","370093","0.0-3.0-1.74","","","Update","o","true"
"null","<div style=""font-size:60px;"">+</div>","null","html-keyboard-response","153","370603","0.0-3.0-0.75","","fixation","","",""
"537","Set1/134a.jpg","79","image-keyboard-response","154","371141","0.0-3.0-1.75","","","Update","o","true"
"null","<div style=""font-size:60px;"">+</div>","null","html-keyboard-response","155","371654","0.0-3.0-0.76","","fixation","","",""
"590","Set1/146a.jpg","79","image-keyboard-response","156","372245","0.0-3.0-1.76","","","Update","o","true"
"null","<div style=""font-size:60px;"">+</div>","null","html-keyboard-response","157","372750","0.0-3.0-0.77","","fixation","","",""
"1326","Set1/107a.jpg","78","image-keyboard-response","158","374077","0.0-3.0-1.77","","","Update","o","false"
"null","<div style=""font-size:60px;"">+</div>","null","html-keyboard-response","159","374578","0.0-3.0-0.78","","fixation","","",""
"682","Set1/079a.jpg","79","image-keyboard-response","160","375261","0.0-3.0-1.78","","","Repeat","o","true"
"null","<div style=""font-size:60px;"">+</div>","null","html-keyboard-response","161","375772","0.0-3.0-0.79","","fixation","","",""
"597","Set1/121a.jpg","79","image-keyboard-response","162","376370","0.0-3.0-1.79","","","Update","o","true"
"null","<div style=""font-size:60px;"">+</div>","null","html-keyboard-response","163","376877","0.0-3.0-0.80","","fixation","","",""
"933","Set1/095a.jpg","78","image-keyboard-response","164","377811","0.0-3.0-1.80","","","Repeat","n","true"
"null","<div style=""font-size:60px;"">+</div>","null","html-keyboard-response","165","378326","0.0-3.0-0.81","","fixation","","",""
"1003","Set1/041a.jpg","78","image-keyboard-response","166","379331","0.0-3.0-1.81","","","Repeat","n","true"
"null","<div style=""font-size:60px;"">+</div>","null","html-keyboard-response","167","379833","0.0-3.0-0.82","","fixation","","",""
"832","Set1/100a.jpg","78","image-keyboard-response","168","380667","0.0-3.0-1.82","","","Update","n","true"
"null","<div style=""font-size:60px;"">+</div>","null","html-keyboard-response","169","381175","0.0-3.0-0.83","","fixation","","",""
"1003","Set1/036a.jpg","78","image-keyboard-response","170","382179","0.0-3.0-1.83","","","Repeat","n","true"
"null","<div style=""font-size:60px;"">+</div>","null","html-keyboard-response","171","382682","0.0-3.0-0.84","","fixation","","",""
"647","Set1/115a.jpg","78","image-keyboard-response","172","383330","0.0-3.0-1.84","","","Update","n","true"
"null","<div style=""font-size:60px;"">+</div>","null","html-keyboard-response","173","383846","0.0-3.0-0.85","","fixation","","",""
"627","Set1/123a.jpg","78","image-keyboard-response","174","384475","0.0-3.0-1.85","","","Update","n","true"
"null","<div style=""font-size:60px;"">+</div>","null","html-keyboard-response","175","384976","0.0-3.0-0.86","","fixation","","",""
"633","Set1/015a.jpg","78","image-keyboard-response","176","385611","0.0-3.0-1.86","","","Set_1_Only","n","true"
"null","<div style=""font-size:60px;"">+</div>","null","html-keyboard-response","177","386125","0.0-3.0-0.87","","fixation","","",""
"716","Set1/096a.jpg","78","image-keyboard-response","178","386843","0.0-3.0-1.87","","","Repeat","n","true"
"null","<div style=""font-size:60px;"">+</div>","null","html-keyboard-response","179","387344","0.0-3.0-0.88","","fixation","","",""
"769","Set1/110a.jpg","78","image-keyboard-response","180","388114","0.0-3.0-1.88","","","Update","n","true"
"null","<div style=""font-size:60px;"">+</div>","null","html-keyboard-response","181","388616","0.0-3.0-0.89","","fixation","","",""
"762","Set1/151a.jpg","78","image-keyboard-response","182","389379","0.0-3.0-1.89","","","Update","n","true"
"null","<div style=""font-size:60px;"">+</div>","null","html-keyboard-response","183","389889","0.0-3.0-0.90","","fixation","","",""
"560","Set1/035a.jpg","78","image-keyboard-response","184","390451","0.0-3.0-1.90","","","Repeat","n","true"
"null","<div style=""font-size:60px;"">+</div>","null","html-keyboard-response","185","390955","0.0-3.0-0.91","","fixation","","",""
"678","Set1/026a.jpg","78","image-keyboard-response","186","391635","0.0-3.0-1.91","","","Set_1_Only","n","true"
"null","<div style=""font-size:60px;"">+</div>","null","html-keyboard-response","187","392143","0.0-3.0-0.92","","fixation","","",""
"674","Set1/067a.jpg","78","image-keyboard-response","188","392819","0.0-3.0-1.92","","","Repeat","n","true"
"null","<div style=""font-size:60px;"">+</div>","null","html-keyboard-response","189","393327","0.0-3.0-0.93","","fixation","","",""
"475","Set1/076a.jpg","78","image-keyboard-response","190","393803","0.0-3.0-1.93","","","Repeat","n","true"
"null","<div style=""font-size:60px;"">+</div>","null","html-keyboard-response","191","394310","0.0-3.0-0.94","","fixation","","",""
"715","Set1/125a.jpg","78","image-keyboard-response","192","395027","0.0-3.0-1.94","","","Update","n","true"
"null","<div style=""font-size:60px;"">+</div>","null","html-keyboard-response","193","395542","0.0-3.0-0.95","","fixation","","",""
"523","Set1/123a.jpg","78","image-keyboard-response","194","396066","0.0-3.0-1.95","","","Update","o","false"
"null","<div style=""font-size:60px;"">+</div>","null","html-keyboard-response","195","396568","0.0-3.0-0.96","","fixation","","",""
"1386","Set1/076a.jpg","79","image-keyboard-response","196","397955","0.0-3.0-1.96","","","Repeat","o","true"
"null","<div style=""font-size:60px;"">+</div>","null","html-keyboard-response","197","398458","0.0-3.0-0.97","","fixation","","",""
"559","Set1/151a.jpg","78","image-keyboard-response","198","399018","0.0-3.0-1.97","","","Update","o","false"
"null","<div style=""font-size:60px;"">+</div>","null","html-keyboard-response","199","399533","0.0-3.0-0.98","","fixation","","",""
"677","Set1/115a.jpg","79","image-keyboard-response","200","400211","0.0-3.0-1.98","","","Update","o","true"
"null","<div style=""font-size:60px;"">+</div>","null","html-keyboard-response","201","400726","0.0-3.0-0.99","","fixation","","",""
"612","Set1/081a.jpg","78","image-keyboard-response","202","401339","0.0-3.0-1.99","","","Repeat","n","true"
"null","<div style=""font-size:60px;"">+</div>","null","html-keyboard-response","203","401852","0.0-3.0-0.100","","fixation","","",""
"781","Set1/015a.jpg","79","image-keyboard-response","204","402635","0.0-3.0-1.100","","","Set_1_Only","o","true"
"null","<div style=""font-size:60px;"">+</div>","null","html-keyboard-response","205","403142","0.0-3.0-0.101","","fixation","","",""
"635","Set1/035a.jpg","79","image-keyboard-response","206","403779","0.0-3.0-1.101","","","Repeat","o","true"
"null","<div style=""font-size:60px;"">+</div>","null","html-keyboard-response","207","404286","0.0-3.0-0.102","","fixation","","",""
"null","Set1/014a.jpg","null","image-keyboard-response","208","414291","0.0-3.0-1.102","","","Set_1_Only","n","false"
"null","<div style=""font-size:60px;"">+</div>","null","html-keyboard-response","209","414794","0.0-3.0-0.103","","fixation","","",""
"887","Set1/152a.jpg","78","image-keyboard-response","210","415684","0.0-3.0-1.103","","","Update","n","true"
"null","<div style=""font-size:60px;"">+</div>","null","html-keyboard-response","211","416194","0.0-3.0-0.104","","fixation","","",""
"775","Set1/114a.jpg","78","image-keyboard-response","212","416971","0.0-3.0-1.104","","","Update","n","true"
"null","<div style=""font-size:60px;"">+</div>","null","html-keyboard-response","213","417479","0.0-3.0-0.105","","fixation","","",""
"715","Set1/019a.jpg","78","image-keyboard-response","214","418195","0.0-3.0-1.105","","","Set_1_Only","n","true"
"null","<div style=""font-size:60px;"">+</div>","null","html-keyboard-response","215","418710","0.0-3.0-0.106","","fixation","","",""
"740","Set1/013a.jpg","78","image-keyboard-response","216","419451","0.0-3.0-1.106","","","Set_1_Only","n","true"
"null","<div style=""font-size:60px;"">+</div>","null","html-keyboard-response","217","419960","0.0-3.0-0.107","","fixation","","",""
"786","Set1/053a.jpg","78","image-keyboard-response","218","420747","0.0-3.0-1.107","","","Repeat","n","true"
"null","<div style=""font-size:60px;"">+</div>","null","html-keyboard-response","219","421259","0.0-3.0-0.108","","fixation","","",""
"1159","Set1/026a.jpg","78","image-keyboard-response","220","422419","0.0-3.0-1.108","","","Set_1_Only","o","false"
"null","<div style=""font-size:60px;"">+</div>","null","html-keyboard-response","221","422928","0.0-3.0-0.109","","fixation","","",""
"729","Set1/138a.jpg","78","image-keyboard-response","222","423659","0.0-3.0-1.109","","","Update","n","true"
"null","<div style=""font-size:60px;"">+</div>","null","html-keyboard-response","223","424176","0.0-3.0-0.110","","fixation","","",""
"865","Set1/010a.jpg","78","image-keyboard-response","224","425043","0.0-3.0-1.110","","","Set_1_Only","n","true"
"null","<div style=""font-size:60px;"">+</div>","null","html-keyboard-response","225","425559","0.0-3.0-0.111","","fixation","","",""
"1371","Set1/008a.jpg","78","image-keyboard-response","226","426931","0.0-3.0-1.111","","","Set_1_Only","n","true"
"null","<div style=""font-size:60px;"">+</div>","null","html-keyboard-response","227","427443","0.0-3.0-0.112","","fixation","","",""
"990","Set1/036a.jpg","78","image-keyboard-response","228","428435","0.0-3.0-1.112","","","Repeat","o","false"
"null","<div style=""font-size:60px;"">+</div>","null","html-keyboard-response","229","428942","0.0-3.0-0.113","","fixation","","",""
"716","Set1/081a.jpg","79","image-keyboard-response","230","429659","0.0-3.0-1.113","","","Repeat","o","true"
"null","<div style=""font-size:60px;"">+</div>","null","html-keyboard-response","231","430161","0.0-3.0-0.114","","fixation","","",""
"720","Set1/114a.jpg","79","image-keyboard-response","232","430883","0.0-3.0-1.114","","","Update","o","true"
"null","<div style=""font-size:60px;"">+</div>","null","html-keyboard-response","233","431393","0.0-3.0-0.115","","fixation","","",""
"null","Set1/156a.jpg","null","image-keyboard-response","234","441414","0.0-3.0-1.115","","","Update","n","false"
"null","<div style=""font-size:60px;"">+</div>","null","html-keyboard-response","235","441917","0.0-3.0-0.116","","fixation","","",""
"874","Set1/056a.jpg","78","image-keyboard-response","236","442793","0.0-3.0-1.116","","","Repeat","n","true"
"null","<div style=""font-size:60px;"">+</div>","null","html-keyboard-response","237","443295","0.0-3.0-0.117","","fixation","","",""
"1792","Set1/150a.jpg","78","image-keyboard-response","238","445088","0.0-3.0-1.117","","","Update","n","true"
"null","<div style=""font-size:60px;"">+</div>","null","html-keyboard-response","239","445601","0.0-3.0-0.118","","fixation","","",""
"718","Set1/152a.jpg","79","image-keyboard-response","240","446320","0.0-3.0-1.118","","","Update","o","true"
"null","<div style=""font-size:60px;"">+</div>","null","html-keyboard-response","241","446824","0.0-3.0-0.119","","fixation","","",""
"735","Set1/157a.jpg","78","image-keyboard-response","242","447560","0.0-3.0-1.119","","","Update","n","true"
"null","<div style=""font-size:60px;"">+</div>","null","html-keyboard-response","243","448072","0.0-3.0-0.120","","fixation","","",""
"615","Set1/059a.jpg","78","image-keyboard-response","244","448688","0.0-3.0-1.120","","","Repeat","n","true"
"null","<div style=""font-size:60px;"">+</div>","null","html-keyboard-response","245","449190","0.0-3.0-0.121","","fixation","","",""
"673","Set1/055a.jpg","78","image-keyboard-response","246","449865","0.0-3.0-1.121","","","Repeat","n","true"
"null","<div style=""font-size:60px;"">+</div>","null","html-keyboard-response","247","450374","0.0-3.0-0.122","","fixation","","",""
"769","Set1/019a.jpg","79","image-keyboard-response","248","451144","0.0-3.0-1.122","","","Set_1_Only","o","true"
"null","<div style=""font-size:60px;"">+</div>","null","html-keyboard-response","249","451658","0.0-3.0-0.123","","fixation","","",""
"805","Set1/075a.jpg","78","image-keyboard-response","250","452464","0.0-3.0-1.123","","","Repeat","n","true"
"null","<div style=""font-size:60px;"">+</div>","null","html-keyboard-response","251","452973","0.0-3.0-0.124","","fixation","","",""
"762","Set1/048a.jpg","78","image-keyboard-response","252","453737","0.0-3.0-1.124","","","Repeat","n","true"
"null","<div style=""font-size:60px;"">+</div>","null","html-keyboard-response","253","454240","0.0-3.0-0.125","","fixation","","",""
"591","Set1/052a.jpg","78","image-keyboard-response","254","454832","0.0-3.0-1.125","","","Repeat","n","true"
"null","<div style=""font-size:60px;"">+</div>","null","html-keyboard-response","255","455341","0.0-3.0-0.126","","fixation","","",""
"602","Set1/154a.jpg","78","image-keyboard-response","256","455944","0.0-3.0-1.126","","","Update","n","true"
"null","<div style=""font-size:60px;"">+</div>","null","html-keyboard-response","257","456455","0.0-3.0-0.127","","fixation","","",""
"688","Set1/041a.jpg","79","image-keyboard-response","258","457144","0.0-3.0-1.127","","","Repeat","o","true"
"null","<div style=""font-size:60px;"">+</div>","null","html-keyboard-response","259","457656","0.0-3.0-0.128","","fixation","","",""
"559","Set1/010a.jpg","78","image-keyboard-response","260","458216","0.0-3.0-1.128","","","Set_1_Only","o","false"
"null","<div style=""font-size:60px;"">+</div>","null","html-keyboard-response","261","458723","0.0-3.0-0.129","","fixation","","",""
"732","Set1/008a.jpg","79","image-keyboard-response","262","459456","0.0-3.0-1.129","","","Set_1_Only","o","true"
"null","<div style=""font-size:60px;"">+</div>","null","html-keyboard-response","263","459958","0.0-3.0-0.130","","fixation","","",""
"809","Set1/154a.jpg","79","image-keyboard-response","264","460768","0.0-3.0-1.130","","","Update","o","true"
"null","<div style=""font-size:60px;"">+</div>","null","html-keyboard-response","265","461274","0.0-3.0-0.131","","fixation","","",""
"701","Set1/048a.jpg","79","image-keyboard-response","266","461976","0.0-3.0-1.131","","","Repeat","o","true"
"null","<div style=""font-size:60px;"">+</div>","null","html-keyboard-response","267","462489","0.0-3.0-0.132","","fixation","","",""
"582","Set1/053a.jpg","78","image-keyboard-response","268","463072","0.0-3.0-1.132","","","Repeat","o","false"
"null","<div style=""font-size:60px;"">+</div>","null","html-keyboard-response","269","463574","0.0-3.0-0.133","","fixation","","",""
"793","Set1/138a.jpg","78","image-keyboard-response","270","464368","0.0-3.0-1.133","","","Update","o","false"
"null","<div style=""font-size:60px;"">+</div>","null","html-keyboard-response","271","464873","0.0-3.0-0.134","","fixation","","",""
"678","Set1/014a.jpg","78","image-keyboard-response","272","465552","0.0-3.0-1.134","","","Set_1_Only","o","false"
"null","<div style=""font-size:60px;"">+</div>","null","html-keyboard-response","273","466057","0.0-3.0-0.135","","fixation","","",""
"614","Set1/075a.jpg","79","image-keyboard-response","274","466672","0.0-3.0-1.135","","","Repeat","o","true"
"null","<div style=""font-size:60px;"">+</div>","null","html-keyboard-response","275","467189","0.0-3.0-0.136","","fixation","","",""
"834","Set1/111a.jpg","78","image-keyboard-response","276","468024","0.0-3.0-1.136","","","Update","n","true"
"null","<div style=""font-size:60px;"">+</div>","null","html-keyboard-response","277","468540","0.0-3.0-0.137","","fixation","","",""
"690","Set1/056a.jpg","79","image-keyboard-response","278","469232","0.0-3.0-1.137","","","Repeat","o","true"
"null","<div style=""font-size:60px;"">+</div>","null","html-keyboard-response","279","469740","0.0-3.0-0.138","","fixation","","",""
"659","Set1/003a.jpg","78","image-keyboard-response","280","470400","0.0-3.0-1.138","","","Set_1_Only","n","true"
"null","<div style=""font-size:60px;"">+</div>","null","html-keyboard-response","281","470908","0.0-3.0-0.139","","fixation","","",""
"811","Set1/125a.jpg","78","image-keyboard-response","282","471720","0.0-3.0-1.139","","","Update","o","false"
"null","<div style=""font-size:60px;"">+</div>","null","html-keyboard-response","283","472225","0.0-3.0-0.140","","fixation","","",""
"550","Set1/072a.jpg","78","image-keyboard-response","284","472776","0.0-3.0-1.140","","","Repeat","n","true"
"null","<div style=""font-size:60px;"">+</div>","null","html-keyboard-response","285","473288","0.0-3.0-0.141","","fixation","","",""
"863","Set1/084a.jpg","78","image-keyboard-response","286","474152","0.0-3.0-1.141","","","Repeat","n","true"
"null","<div style=""font-size:60px;"">+</div>","null","html-keyboard-response","287","474656","0.0-3.0-0.142","","fixation","","",""
"711","Set1/156a.jpg","78","image-keyboard-response","288","475368","0.0-3.0-1.142","","","Update","o","false"
"null","<div style=""font-size:60px;"">+</div>","null","html-keyboard-response","289","475873","0.0-3.0-0.143","","fixation","","",""
"550","Set1/003a.jpg","78","image-keyboard-response","290","476424","0.0-3.0-1.143","","","Set_1_Only","o","false"
"null","<div style=""font-size:60px;"">+</div>","null","html-keyboard-response","291","476938","0.0-3.0-0.144","","fixation","","",""
"709","Set1/059a.jpg","79","image-keyboard-response","292","477649","0.0-3.0-1.144","","","Repeat","o","true"
"null","<div style=""font-size:60px;"">+</div>","null","html-keyboard-response","293","478157","0.0-3.0-0.145","","fixation","","",""
"777","Set1/110a.jpg","79","image-keyboard-response","294","478936","0.0-3.0-1.145","","","Update","o","true"
"null","<div style=""font-size:60px;"">+</div>","null","html-keyboard-response","295","479441","0.0-3.0-0.146","","fixation","","",""
"741","Set1/084a.jpg","79","image-keyboard-response","296","480184","0.0-3.0-1.146","","","Repeat","o","true"
"null","<div style=""font-size:60px;"">+</div>","null","html-keyboard-response","297","480690","0.0-3.0-0.147","","fixation","","",""
"500","Set1/072a.jpg","79","image-keyboard-response","298","481192","0.0-3.0-1.147","","","Repeat","o","true"
"null","<div style=""font-size:60px;"">+</div>","null","html-keyboard-response","299","481706","0.0-3.0-0.148","","fixation","","",""
"765","Set1/127a.jpg","78","image-keyboard-response","300","482473","0.0-3.0-1.148","","","Update","n","true"
"null","<div style=""font-size:60px;"">+</div>","null","html-keyboard-response","301","482987","0.0-3.0-0.149","","fixation","","",""
"772","Set1/095a.jpg","79","image-keyboard-response","302","483761","0.0-3.0-1.149","","","Repeat","o","true"
"null","<div style=""font-size:60px;"">+</div>","null","html-keyboard-response","303","484272","0.0-3.0-0.150","","fixation","","",""
"663","Set1/013a.jpg","79","image-keyboard-response","304","484936","0.0-3.0-1.150","","","Set_1_Only","o","true"
"null","<div style=""font-size:60px;"">+</div>","null","html-keyboard-response","305","485440","0.0-3.0-0.151","","fixation","","",""
"736","Set1/067a.jpg","79","image-keyboard-response","306","486177","0.0-3.0-1.151","","","Repeat","o","true"
"null","<div style=""font-size:60px;"">+</div>","null","html-keyboard-response","307","486689","0.0-3.0-0.152","","fixation","","",""
"494","Set1/157a.jpg","79","image-keyboard-response","308","487184","0.0-3.0-1.152","","","Update","o","true"
"null","<div style=""font-size:60px;"">+</div>","null","html-keyboard-response","309","487691","0.0-3.0-0.153","","fixation","","",""
"1252","Set1/127a.jpg","79","image-keyboard-response","310","488944","0.0-3.0-1.153","","","Update","o","true"
"null","<div style=""font-size:60px;"">+</div>","null","html-keyboard-response","311","489456","0.0-3.0-0.154","","fixation","","",""
"631","Set1/052a.jpg","79","image-keyboard-response","312","490088","0.0-3.0-1.154","","","Repeat","o","true"
"null","<div style=""font-size:60px;"">+</div>","null","html-keyboard-response","313","490590","0.0-3.0-0.155","","fixation","","",""
"553","Set1/055a.jpg","79","image-keyboard-response","314","491144","0.0-3.0-1.155","","","Repeat","o","true"
"null","<div style=""font-size:60px;"">+</div>","null","html-keyboard-response","315","491656","0.0-3.0-0.156","","fixation","","",""
"543","Set1/111a.jpg","79","image-keyboard-response","316","492200","0.0-3.0-1.156","","","Update","o","true"
"null","<div style=""font-size:60px;"">+</div>","null","html-keyboard-response","317","492707","0.0-3.0-0.157","","fixation","","",""
"644","Set1/150a.jpg","79","image-keyboard-response","318","493352","0.0-3.0-1.157","","","Update","o","true"
"null","<div style=""font-size:60px;"">+</div>","null","html-keyboard-response","319","493857","0.0-3.0-0.158","","fixation","","",""
"742","Set1/100a.jpg","78","image-keyboard-response","320","494601","0.0-3.0-1.158","","","Update","o","false"
"null","<div style=""font-size:60px;"">+</div>","null","html-keyboard-response","321","495107","0.0-3.0-0.159","","fixation","","",""
"820","Set1/096a.jpg","78","image-keyboard-response","322","495928","0.0-3.0-1.159","","","Repeat","o","false"
"null","<div style=""font-size:60px;"">+</div>","null","html-keyboard-response","323","496439","0.0-3.0-0.160","","fixation","","",""
"905","Set1/159a.jpg","78","image-keyboard-response","324","497345","0.0-3.0-1.160","","","Update","n","true"
"null","<div style=""font-size:60px;"">+</div>","null","html-keyboard-response","325","497857","0.0-3.0-0.161","","fixation","","",""
"null","Set1/074a.jpg","null","image-keyboard-response","326","507864","0.0-3.0-1.161","","","Repeat","n","false"
"null","<div style=""font-size:60px;"">+</div>","null","html-keyboard-response","327","508372","0.0-3.0-0.162","","fixation","","",""
"null","Set1/060a.jpg","null","image-keyboard-response","328","518387","0.0-3.0-1.162","","","Repeat","n","false"
"null","<div style=""font-size:60px;"">+</div>","null","html-keyboard-response","329","518903","0.0-3.0-0.163","","fixation","","",""
"958","Set1/062a.jpg","78","image-keyboard-response","330","519863","0.0-3.0-1.163","","","Repeat","n","true"
"null","<div style=""font-size:60px;"">+</div>","null","html-keyboard-response","331","520371","0.0-3.0-0.164","","fixation","","",""
"666","Set1/155a.jpg","78","image-keyboard-response","332","521038","0.0-3.0-1.164","","","Update","n","true"
"null","<div style=""font-size:60px;"">+</div>","null","html-keyboard-response","333","521555","0.0-3.0-0.165","","fixation","","",""
"658","Set1/117a.jpg","78","image-keyboard-response","334","522214","0.0-3.0-1.165","","","Update","n","true"
"null","<div style=""font-size:60px;"">+</div>","null","html-keyboard-response","335","522721","0.0-3.0-0.166","","fixation","","",""
"508","Set1/004a.jpg","78","image-keyboard-response","336","523230","0.0-3.0-1.166","","","Set_1_Only","n","true"
"null","<div style=""font-size:60px;"">+</div>","null","html-keyboard-response","337","523739","0.0-3.0-0.167","","fixation","","",""
"682","Set1/097a.jpg","78","image-keyboard-response","338","524422","0.0-3.0-1.167","","","Update","n","true"
"null","<div style=""font-size:60px;"">+</div>","null","html-keyboard-response","339","524937","0.0-3.0-0.168","","fixation","","",""
"612","Set1/130a.jpg","78","image-keyboard-response","340","525550","0.0-3.0-1.168","","","Update","n","true"
"null","<div style=""font-size:60px;"">+</div>","null","html-keyboard-response","341","526056","0.0-3.0-0.169","","fixation","","",""
"613","Set1/068a.jpg","78","image-keyboard-response","342","526670","0.0-3.0-1.169","","","Repeat","n","true"
"null","<div style=""font-size:60px;"">+</div>","null","html-keyboard-response","343","527187","0.0-3.0-0.170","","fixation","","",""
"546","Set1/137a.jpg","78","image-keyboard-response","344","527734","0.0-3.0-1.170","","","Update","n","true"
"null","<div style=""font-size:60px;"">+</div>","null","html-keyboard-response","345","528238","0.0-3.0-0.171","","fixation","","",""
"551","Set1/097a.jpg","78","image-keyboard-response","346","528790","0.0-3.0-1.171","","","Update","o","false"
"null","<div style=""font-size:60px;"">+</div>","null","html-keyboard-response","347","529292","0.0-3.0-0.172","","fixation","","",""
"553","Set1/147a.jpg","78","image-keyboard-response","348","529846","0.0-3.0-1.172","","","Update","n","true"
"null","<div style=""font-size:60px;"">+</div>","null","html-keyboard-response","349","530355","0.0-3.0-0.173","","fixation","","",""
"627","Set1/155a.jpg","79","image-keyboard-response","350","530983","0.0-3.0-1.173","","","Update","o","true"
"null","<div style=""font-size:60px;"">+</div>","null","html-keyboard-response","351","531488","0.0-3.0-0.174","","fixation","","",""
"877","Set1/002a.jpg","78","image-keyboard-response","352","532366","0.0-3.0-1.174","","","Set_1_Only","n","true"
"null","<div style=""font-size:60px;"">+</div>","null","html-keyboard-response","353","532872","0.0-3.0-0.175","","fixation","","",""
"653","Set1/033a.jpg","78","image-keyboard-response","354","533526","0.0-3.0-1.175","","","Repeat","n","true"
"null","<div style=""font-size:60px;"">+</div>","null","html-keyboard-response","355","534038","0.0-3.0-0.176","","fixation","","",""
"751","Set1/102a.jpg","78","image-keyboard-response","356","534790","0.0-3.0-1.176","","","Update","n","true"
"null","<div style=""font-size:60px;"">+</div>","null","html-keyboard-response","357","535304","0.0-3.0-0.177","","fixation","","",""
"661","Set1/057a.jpg","78","image-keyboard-response","358","535966","0.0-3.0-1.177","","","Repeat","n","true"
"null","<div style=""font-size:60px;"">+</div>","null","html-keyboard-response","359","536473","0.0-3.0-0.178","","fixation","","",""
"508","Set1/147a.jpg","78","image-keyboard-response","360","536982","0.0-3.0-1.178","","","Update","o","false"
"null","<div style=""font-size:60px;"">+</div>","null","html-keyboard-response","361","537488","0.0-3.0-0.179","","fixation","","",""
"541","Set1/057a.jpg","78","image-keyboard-response","362","538031","0.0-3.0-1.179","","","Repeat","o","false"
"null","<div style=""font-size:60px;"">+</div>","null","html-keyboard-response","363","538538","0.0-3.0-0.180","","fixation","","",""
"642","Set1/131a.jpg","78","image-keyboard-response","364","539183","0.0-3.0-1.180","","","Update","n","true"
"null","<div style=""font-size:60px;"">+</div>","null","html-keyboard-response","365","539688","0.0-3.0-0.181","","fixation","","",""
"637","Set1/032a.jpg","78","image-keyboard-response","366","540326","0.0-3.0-1.181","","","Set_1_Only","n","true"
"null","<div style=""font-size:60px;"">+</div>","null","html-keyboard-response","367","540838","0.0-3.0-0.182","","fixation","","",""
"519","Set1/065a.jpg","78","image-keyboard-response","368","541359","0.0-3.0-1.182","","","Repeat","n","true"
"null","<div style=""font-size:60px;"">+</div>","null","html-keyboard-response","369","541870","0.0-3.0-0.183","","fixation","","",""
"615","Set1/149a.jpg","78","image-keyboard-response","370","542486","0.0-3.0-1.183","","","Update","n","true"
"null","<div style=""font-size:60px;"">+</div>","null","html-keyboard-response","371","542988","0.0-3.0-0.184","","fixation","","",""
"561","Set1/065a.jpg","79","image-keyboard-response","372","543551","0.0-3.0-1.184","","","Repeat","o","true"
"null","<div style=""font-size:60px;"">+</div>","null","html-keyboard-response","373","544054","0.0-3.0-0.185","","fixation","","",""
"847","Set1/089a.jpg","78","image-keyboard-response","374","544902","0.0-3.0-1.185","","","Repeat","n","true"
"null","<div style=""font-size:60px;"">+</div>","null","html-keyboard-response","375","545405","0.0-3.0-0.186","","fixation","","",""
"648","Set1/144a.jpg","78","image-keyboard-response","376","546054","0.0-3.0-1.186","","","Update","n","true"
"null","<div style=""font-size:60px;"">+</div>","null","html-keyboard-response","377","546558","0.0-3.0-0.187","","fixation","","",""
"959","Set1/069a.jpg","78","image-keyboard-response","378","547519","0.0-3.0-1.187","","","Repeat","n","true"
"null","<div style=""font-size:60px;"">+</div>","null","html-keyboard-response","379","548021","0.0-3.0-0.188","","fixation","","",""
"1032","Set1/129a.jpg","78","image-keyboard-response","380","549054","0.0-3.0-1.188","","","Update","n","true"
"null","<div style=""font-size:60px;"">+</div>","null","html-keyboard-response","381","549570","0.0-3.0-0.189","","fixation","","",""
"458","Set1/032a.jpg","78","image-keyboard-response","382","550030","0.0-3.0-1.189","","","Set_1_Only","o","false"
"null","<div style=""font-size:60px;"">+</div>","null","html-keyboard-response","383","550538","0.0-3.0-0.190","","fixation","","",""
"635","Set1/024a.jpg","78","image-keyboard-response","384","551175","0.0-3.0-1.190","","","Set_1_Only","n","true"
"null","<div style=""font-size:60px;"">+</div>","null","html-keyboard-response","385","551687","0.0-3.0-0.191","","fixation","","",""
"614","Set1/078a.jpg","78","image-keyboard-response","386","552303","0.0-3.0-1.191","","","Repeat","n","true"
"null","<div style=""font-size:60px;"">+</div>","null","html-keyboard-response","387","552804","0.0-3.0-0.192","","fixation","","",""
"577","Set1/103a.jpg","78","image-keyboard-response","388","553382","0.0-3.0-1.192","","","Update","n","true"
"null","<div style=""font-size:60px;"">+</div>","null","html-keyboard-response","389","553889","0.0-3.0-0.193","","fixation","","",""
"788","Set1/130a.jpg","79","image-keyboard-response","390","554678","0.0-3.0-1.193","","","Update","o","true"
"null","<div style=""font-size:60px;"">+</div>","null","html-keyboard-response","391","555188","0.0-3.0-0.194","","fixation","","",""
"1401","Set1/022a.jpg","78","image-keyboard-response","392","556590","0.0-3.0-1.194","","","Set_1_Only","n","true"
"null","<div style=""font-size:60px;"">+</div>","null","html-keyboard-response","393","557104","0.0-3.0-0.195","","fixation","","",""
"877","Set1/124a.jpg","78","image-keyboard-response","394","557982","0.0-3.0-1.195","","","Update","n","true"
"null","<div style=""font-size:60px;"">+</div>","null","html-keyboard-response","395","558488","0.0-3.0-0.196","","fixation","","",""
"493","Set1/068a.jpg","78","image-keyboard-response","396","558982","0.0-3.0-1.196","","","Repeat","o","false"
"null","<div style=""font-size:60px;"">+</div>","null","html-keyboard-response","397","559488","0.0-3.0-0.197","","fixation","","",""
"1260","Set1/078a.jpg","79","image-keyboard-response","398","560750","0.0-3.0-1.197","","","Repeat","o","true"
"null","<div style=""font-size:60px;"">+</div>","null","html-keyboard-response","399","561255","0.0-3.0-0.198","","fixation","","",""
"1102","Set1/137a.jpg","79","image-keyboard-response","400","562359","0.0-3.0-1.198","","","Update","o","true"
"null","<div style=""font-size:60px;"">+</div>","null","html-keyboard-response","401","562870","0.0-3.0-0.199","","fixation","","",""
"1430","Set1/118a.jpg","78","image-keyboard-response","402","564302","0.0-3.0-1.199","","","Update","n","true"
"null","<div style=""font-size:60px;"">+</div>","null","html-keyboard-response","403","564805","0.0-3.0-0.200","","fixation","","",""
"672","Set1/149a.jpg","79","image-keyboard-response","404","565478","0.0-3.0-1.200","","","Update","o","true"
"null","<div style=""font-size:60px;"">+</div>","null","html-keyboard-response","405","565988","0.0-3.0-0.201","","fixation","","",""
"689","Set1/002a.jpg","79","image-keyboard-response","406","566678","0.0-3.0-1.201","","","Set_1_Only","o","true"
"null","<div style=""font-size:60px;"">+</div>","null","html-keyboard-response","407","567188","0.0-3.0-0.202","","fixation","","",""
"704","Set1/103a.jpg","78","image-keyboard-response","408","567894","0.0-3.0-1.202","","","Update","o","false"
"null","<div style=""font-size:60px;"">+</div>","null","html-keyboard-response","409","568404","0.0-3.0-0.203","","fixation","","",""
"937","Set1/012a.jpg","78","image-keyboard-response","410","569342","0.0-3.0-1.203","","","Set_1_Only","n","true"
"null","<div style=""font-size:60px;"">+</div>","null","html-keyboard-response","411","569854","0.0-3.0-0.204","","fixation","","",""
"727","Set1/104a.jpg","78","image-keyboard-response","412","570582","0.0-3.0-1.204","","","Update","n","true"
"null","<div style=""font-size:60px;"">+</div>","null","html-keyboard-response","413","571086","0.0-3.0-0.205","","fixation","","",""
"758","Set1/080a.jpg","78","image-keyboard-response","414","571847","0.0-3.0-1.205","","","Repeat","n","true"
"null","<div style=""font-size:60px;"">+</div>","null","html-keyboard-response","415","572351","0.0-3.0-0.206","","fixation","","",""
"559","Set1/040a.jpg","78","image-keyboard-response","416","572911","0.0-3.0-1.206","","","Repeat","n","true"
"null","<div style=""font-size:60px;"">+</div>","null","html-keyboard-response","417","573421","0.0-3.0-0.207","","fixation","","",""
"689","Set1/145a.jpg","78","image-keyboard-response","418","574110","0.0-3.0-1.207","","","Update","n","true"
"null","<div style=""font-size:60px;"">+</div>","null","html-keyboard-response","419","574622","0.0-3.0-0.208","","fixation","","",""
"431","Set1/004a.jpg","78","image-keyboard-response","420","575054","0.0-3.0-1.208","","","Set_1_Only","o","false"
"null","<div style=""font-size:60px;"">+</div>","null","html-keyboard-response","421","575571","0.0-3.0-0.209","","fixation","","",""
"522","Set1/073a.jpg","78","image-keyboard-response","422","576094","0.0-3.0-1.209","","","Repeat","n","true"
"null","<div style=""font-size:60px;"">+</div>","null","html-keyboard-response","423","576604","0.0-3.0-0.210","","fixation","","",""
"425","Set1/144a.jpg","78","image-keyboard-response","424","577030","0.0-3.0-1.210","","","Update","o","false"
"null","<div style=""font-size:60px;"">+</div>","null","html-keyboard-response","425","577532","0.0-3.0-0.211","","fixation","","",""
"689","Set1/145a.jpg","79","image-keyboard-response","426","578222","0.0-3.0-1.211","","","Update","o","true"
"null","<div style=""font-size:60px;"">+</div>","null","html-keyboard-response","427","578739","0.0-3.0-0.212","","fixation","","",""
"994","Set1/124a.jpg","79","image-keyboard-response","428","579735","0.0-3.0-1.212","","","Update","o","true"
"null","<div style=""font-size:60px;"">+</div>","null","html-keyboard-response","429","580239","0.0-3.0-0.213","","fixation","","",""
"814","Set1/040a.jpg","78","image-keyboard-response","430","581054","0.0-3.0-1.213","","","Repeat","o","false"
"null","<div style=""font-size:60px;"">+</div>","null","html-keyboard-response","431","581565","0.0-3.0-0.214","","fixation","","",""
"944","Set1/069a.jpg","78","image-keyboard-response","432","582510","0.0-3.0-1.214","","","Repeat","o","false"
"null","<div style=""font-size:60px;"">+</div>","null","html-keyboard-response","433","583020","0.0-3.0-0.215","","fixation","","",""
"1354","Set1/143a.jpg","78","image-keyboard-response","434","584375","0.0-3.0-1.215","","","Update","n","true"
"null","<div style=""font-size:60px;"">+</div>","null","html-keyboard-response","435","584887","0.0-3.0-0.216","","fixation","","",""
"869","Set1/024a.jpg","79","image-keyboard-response","436","585758","0.0-3.0-1.216","","","Set_1_Only","o","true"
"null","<div style=""font-size:60px;"">+</div>","null","html-keyboard-response","437","586271","0.0-3.0-0.217","","fixation","","",""
"597","Set1/131a.jpg","79","image-keyboard-response","438","586870","0.0-3.0-1.217","","","Update","o","true"
"null","<div style=""font-size:60px;"">+</div>","null","html-keyboard-response","439","587387","0.0-3.0-0.218","","fixation","","",""
"650","Set1/094a.jpg","78","image-keyboard-response","440","588039","0.0-3.0-1.218","","","Repeat","n","true"
"null","<div style=""font-size:60px;"">+</div>","null","html-keyboard-response","441","588544","0.0-3.0-0.219","","fixation","","",""
"661","Set1/104a.jpg","79","image-keyboard-response","442","589206","0.0-3.0-1.219","","","Update","o","true"
"null","<div style=""font-size:60px;"">+</div>","null","html-keyboard-response","443","589722","0.0-3.0-0.220","","fixation","","",""
"715","Set1/080a.jpg","79","image-keyboard-response","444","590438","0.0-3.0-1.220","","","Repeat","o","true"
"null","<div style=""font-size:60px;"">+</div>","null","html-keyboard-response","445","590942","0.0-3.0-0.221","","fixation","","",""
"656","Set1/060a.jpg","78","image-keyboard-response","446","591599","0.0-3.0-1.221","","","Repeat","o","false"
"null","<div style=""font-size:60px;"">+</div>","null","html-keyboard-response","447","592100","0.0-3.0-0.222","","fixation","","",""
"735","Set1/129a.jpg","79","image-keyboard-response","448","592839","0.0-3.0-1.222","","","Update","o","true"
"null","<div style=""font-size:60px;"">+</div>","null","html-keyboard-response","449","593354","0.0-3.0-0.223","","fixation","","",""
"547","Set1/089a.jpg","79","image-keyboard-response","450","593902","0.0-3.0-1.223","","","Repeat","o","true"
"null","<div style=""font-size:60px;"">+</div>","null","html-keyboard-response","451","594405","0.0-3.0-0.224","","fixation","","",""
"745","Set1/159a.jpg","78","image-keyboard-response","452","595151","0.0-3.0-1.224","","","Update","o","false"
"null","<div style=""font-size:60px;"">+</div>","null","html-keyboard-response","453","595654","0.0-3.0-0.225","","fixation","","",""
"727","Set1/135a.jpg","78","image-keyboard-response","454","596382","0.0-3.0-1.225","","","Update","n","true"
"null","<div style=""font-size:60px;"">+</div>","null","html-keyboard-response","455","596895","0.0-3.0-0.226","","fixation","","",""
"598","Set1/116a.jpg","78","image-keyboard-response","456","597494","0.0-3.0-1.226","","","Update","n","true"
"null","<div style=""font-size:60px;"">+</div>","null","html-keyboard-response","457","598003","0.0-3.0-0.227","","fixation","","",""
"658","Set1/102a.jpg","79","image-keyboard-response","458","598662","0.0-3.0-1.227","","","Update","o","true"
"null","<div style=""font-size:60px;"">+</div>","null","html-keyboard-response","459","599172","0.0-3.0-0.228","","fixation","","",""
"625","Set1/022a.jpg","79","image-keyboard-response","460","599799","0.0-3.0-1.228","","","Set_1_Only","o","true"
"null","<div style=""font-size:60px;"">+</div>","null","html-keyboard-response","461","600305","0.0-3.0-0.229","","fixation","","",""
"628","Set1/094a.jpg","79","image-keyboard-response","462","600934","0.0-3.0-1.229","","","Repeat","o","true"
"null","<div style=""font-size:60px;"">+</div>","null","html-keyboard-response","463","601438","0.0-3.0-0.230","","fixation","","",""
"575","Set1/118a.jpg","79","image-keyboard-response","464","602014","0.0-3.0-1.230","","","Update","o","true"
"null","<div style=""font-size:60px;"">+</div>","null","html-keyboard-response","465","602516","0.0-3.0-0.231","","fixation","","",""
"569","Set1/033a.jpg","79","image-keyboard-response","466","603086","0.0-3.0-1.231","","","Repeat","o","true"
"null","<div style=""font-size:60px;"">+</div>","null","html-keyboard-response","467","603595","0.0-3.0-0.232","","fixation","","",""
"1098","Set1/117a.jpg","78","image-keyboard-response","468","604694","0.0-3.0-1.232","","","Update","o","false"
"null","<div style=""font-size:60px;"">+</div>","null","html-keyboard-response","469","605204","0.0-3.0-0.233","","fixation","","",""
"705","Set1/135a.jpg","79","image-keyboard-response","470","605911","0.0-3.0-1.233","","","Update","o","true"
"null","<div style=""font-size:60px;"">+</div>","null","html-keyboard-response","471","606423","0.0-3.0-0.234","","fixation","","",""
"630","Set1/116a.jpg","79","image-keyboard-response","472","607054","0.0-3.0-1.234","","","Update","o","true"
"null","<div style=""font-size:60px;"">+</div>","null","html-keyboard-response","473","607556","0.0-3.0-0.235","","fixation","","",""
"681","Set1/143a.jpg","79","image-keyboard-response","474","608238","0.0-3.0-1.235","","","Update","o","true"
"null","<div style=""font-size:60px;"">+</div>","null","html-keyboard-response","475","608754","0.0-3.0-0.236","","fixation","","",""
"763","Set1/074a.jpg","78","image-keyboard-response","476","609518","0.0-3.0-1.236","","","Repeat","o","false"
"null","<div style=""font-size:60px;"">+</div>","null","html-keyboard-response","477","610022","0.0-3.0-0.237","","fixation","","",""
"735","Set1/012a.jpg","78","image-keyboard-response","478","610758","0.0-3.0-1.237","","","Set_1_Only","o","false"
"null","<div style=""font-size:60px;"">+</div>","null","html-keyboard-response","479","611272","0.0-3.0-0.238","","fixation","","",""
"829","Set1/062a.jpg","78","image-keyboard-response","480","612103","0.0-3.0-1.238","","","Repeat","o","false"
"null","<div style=""font-size:60px;"">+</div>","null","html-keyboard-response","481","612617","0.0-3.0-0.239","","fixation","","",""
"612","Set1/073a.jpg","79","image-keyboard-response","482","613230","0.0-3.0-1.239","","","Repeat","o","true"
"null","<div style=""font-size:60px;"">+</div>","null","html-keyboard-response","483","613744","0.0-3.0-0.240","","fixation","","",""
"757","Set1/029a.jpg","78","image-keyboard-response","484","614502","0.0-3.0-1.240","","","Set_1_Only","n","true"
"null","<div style=""font-size:60px;"">+</div>","null","html-keyboard-response","485","615006","0.0-3.0-0.241","","fixation","","",""
"880","Set1/098a.jpg","78","image-keyboard-response","486","615887","0.0-3.0-1.241","","","Update","n","true"
"null","<div style=""font-size:60px;"">+</div>","null","html-keyboard-response","487","616389","0.0-3.0-0.242","","fixation","","",""
"1121","Set1/086a.jpg","78","image-keyboard-response","488","617511","0.0-3.0-1.242","","","Repeat","n","true"
"null","<div style=""font-size:60px;"">+</div>","null","html-keyboard-response","489","618017","0.0-3.0-0.243","","fixation","","",""
"1100","Set1/070a.jpg","78","image-keyboard-response","490","619118","0.0-3.0-1.243","","","Repeat","n","true"
"null","<div style=""font-size:60px;"">+</div>","null","html-keyboard-response","491","619620","0.0-3.0-0.244","","fixation","","",""
"577","Set1/091a.jpg","78","image-keyboard-response","492","620198","0.0-3.0-1.244","","","Repeat","n","true"
"null","<div style=""font-size:60px;"">+</div>","null","html-keyboard-response","493","620700","0.0-3.0-0.245","","fixation","","",""
"657","Set1/043a.jpg","78","image-keyboard-response","494","621358","0.0-3.0-1.245","","","Repeat","n","true"
"null","<div style=""font-size:60px;"">+</div>","null","html-keyboard-response","495","621872","0.0-3.0-0.246","","fixation","","",""
"581","Set1/083a.jpg","78","image-keyboard-response","496","622455","0.0-3.0-1.246","","","Repeat","n","true"
"null","<div style=""font-size:60px;"">+</div>","null","html-keyboard-response","497","622971","0.0-3.0-0.247","","fixation","","",""
"619","Set1/011a.jpg","78","image-keyboard-response","498","623591","0.0-3.0-1.247","","","Set_1_Only","n","true"
"null","<div style=""font-size:60px;"">+</div>","null","html-keyboard-response","499","624104","0.0-3.0-0.248","","fixation","","",""
"494","Set1/142a.jpg","78","image-keyboard-response","500","624598","0.0-3.0-1.248","","","Update","n","true"
"null","<div style=""font-size:60px;"">+</div>","null","html-keyboard-response","501","625105","0.0-3.0-0.249","","fixation","","",""
"596","Set1/061a.jpg","78","image-keyboard-response","502","625702","0.0-3.0-1.249","","","Repeat","n","true"
"null","<div style=""font-size:60px;"">+</div>","null","html-keyboard-response","503","626206","0.0-3.0-0.250","","fixation","","",""
"575","Set1/007a.jpg","78","image-keyboard-response","504","626782","0.0-3.0-1.250","","","Set_1_Only","n","true"
"null","<div style=""font-size:60px;"">+</div>","null","html-keyboard-response","505","627288","0.0-3.0-0.251","","fixation","","",""
"646","Set1/039a.jpg","78","image-keyboard-response","506","627935","0.0-3.0-1.251","","","Repeat","n","true"
"null","<div style=""font-size:60px;"">+</div>","null","html-keyboard-response","507","628441","0.0-3.0-0.252","","fixation","","",""
"null","Set1/023a.jpg","null","image-keyboard-response","508","638453","0.0-3.0-1.252","","","Set_1_Only","n","false"
"null","<div style=""font-size:60px;"">+</div>","null","html-keyboard-response","509","638956","0.0-3.0-0.253","","fixation","","",""
"928","Set1/001a.jpg","78","image-keyboard-response","510","639886","0.0-3.0-1.253","","","Set_1_Only","n","true"
"null","<div style=""font-size:60px;"">+</div>","null","html-keyboard-response","511","640387","0.0-3.0-0.254","","fixation","","",""
"824","Set1/038a.jpg","78","image-keyboard-response","512","641213","0.0-3.0-1.254","","","Repeat","n","true"
"null","<div style=""font-size:60px;"">+</div>","null","html-keyboard-response","513","641721","0.0-3.0-0.255","","fixation","","",""
"554","Set1/126a.jpg","78","image-keyboard-response","514","642277","0.0-3.0-1.255","","","Update","n","true"
"null","<div style=""font-size:60px;"">+</div>","null","html-keyboard-response","515","642791","0.0-3.0-0.256","","fixation","","",""
"709","Set1/021a.jpg","78","image-keyboard-response","516","643501","0.0-3.0-1.256","","","Set_1_Only","n","true"
"null","<div style=""font-size:60px;"">+</div>","null","html-keyboard-response","517","644004","0.0-3.0-0.257","","fixation","","",""
"679","Set1/109a.jpg","78","image-keyboard-response","518","644685","0.0-3.0-1.257","","","Update","n","true"
"null","<div style=""font-size:60px;"">+</div>","null","html-keyboard-response","519","645187","0.0-3.0-0.258","","fixation","","",""
"696","Set1/099a.jpg","78","image-keyboard-response","520","645885","0.0-3.0-1.258","","","Update","n","true"
"null","<div style=""font-size:60px;"">+</div>","null","html-keyboard-response","521","646387","0.0-3.0-0.259","","fixation","","",""
"657","Set1/122a.jpg","78","image-keyboard-response","522","647045","0.0-3.0-1.259","","","Update","n","true"
"null","<div style=""font-size:60px;"">+</div>","null","html-keyboard-response","523","647556","0.0-3.0-0.260","","fixation","","",""
"728","Set1/023a.jpg","78","image-keyboard-response","524","648285","0.0-3.0-1.260","","","Set_1_Only","o","false"
"null","<div style=""font-size:60px;"">+</div>","null","html-keyboard-response","525","648792","0.0-3.0-0.261","","fixation","","",""
"563","Set1/017a.jpg","78","image-keyboard-response","526","649357","0.0-3.0-1.261","","","Set_1_Only","n","true"
"null","<div style=""font-size:60px;"">+</div>","null","html-keyboard-response","527","649871","0.0-3.0-0.262","","fixation","","",""
"637","Set1/132a.jpg","78","image-keyboard-response","528","650509","0.0-3.0-1.262","","","Update","n","true"
"null","<div style=""font-size:60px;"">+</div>","null","html-keyboard-response","529","651020","0.0-3.0-0.263","","fixation","","",""
"576","Set1/042a.jpg","78","image-keyboard-response","530","651597","0.0-3.0-1.263","","","Repeat","n","true"
"null","<div style=""font-size:60px;"">+</div>","null","html-keyboard-response","531","652103","0.0-3.0-0.264","","fixation","","",""
"620","Set1/087a.jpg","78","image-keyboard-response","532","652725","0.0-3.0-1.264","","","Repeat","n","true"
"null","<div style=""font-size:60px;"">+</div>","null","html-keyboard-response","533","653235","0.0-3.0-0.265","","fixation","","",""
"552","Set1/101a.jpg","78","image-keyboard-response","534","653789","0.0-3.0-1.265","","","Update","n","true"
"null","<div style=""font-size:60px;"">+</div>","null","html-keyboard-response","535","654302","0.0-3.0-0.266","","fixation","","",""
"621","Set1/066a.jpg","78","image-keyboard-response","536","654925","0.0-3.0-1.266","","","Repeat","n","true"
"null","<div style=""font-size:60px;"">+</div>","null","html-keyboard-response","537","655435","0.0-3.0-0.267","","fixation","","",""
"497","Set1/091a.jpg","78","image-keyboard-response","538","655933","0.0-3.0-1.267","","","Repeat","o","false"
"null","<div style=""font-size:60px;"">+</div>","null","html-keyboard-response","539","656437","0.0-3.0-0.268","","fixation","","",""
"622","Set1/077a.jpg","78","image-keyboard-response","540","657061","0.0-3.0-1.268","","","Repeat","n","true"
"null","<div style=""font-size:60px;"">+</div>","null","html-keyboard-response","541","657569","0.0-3.0-0.269","","fixation","","",""
"578","Set1/042a.jpg","78","image-keyboard-response","542","658149","0.0-3.0-1.269","","","Repeat","o","false"
"null","<div style=""font-size:60px;"">+</div>","null","html-keyboard-response","543","658653","0.0-3.0-0.270","","fixation","","",""
"681","Set1/018a.jpg","78","image-keyboard-response","544","659335","0.0-3.0-1.270","","","Set_1_Only","n","true"
"null","<div style=""font-size:60px;"">+</div>","null","html-keyboard-response","545","659843","0.0-3.0-0.271","","fixation","","",""
"null","Set1/058a.jpg","null","image-keyboard-response","546","669846","0.0-3.0-1.271","","","Repeat","n","false"
"null","<div style=""font-size:60px;"">+</div>","null","html-keyboard-response","547","670354","0.0-3.0-0.272","","fixation","","",""
"802","Set1/132a.jpg","78","image-keyboard-response","548","671158","0.0-3.0-1.272","","","Update","o","false"
"null","<div style=""font-size:60px;"">+</div>","null","html-keyboard-response","549","671672","0.0-3.0-0.273","","fixation","","",""
"684","Set1/038a.jpg","79","image-keyboard-response","550","672357","0.0-3.0-1.273","","","Repeat","o","true"
"null","<div style=""font-size:60px;"">+</div>","null","html-keyboard-response","551","672870","0.0-3.0-0.274","","fixation","","",""
"613","Set1/066a.jpg","78","image-keyboard-response","552","673485","0.0-3.0-1.274","","","Repeat","o","false"
"null","<div style=""font-size:60px;"">+</div>","null","html-keyboard-response","553","673987","0.0-3.0-0.275","","fixation","","",""
"752","Set1/099a.jpg","79","image-keyboard-response","554","674741","0.0-3.0-1.275","","","Update","o","true"
"null","<div style=""font-size:60px;"">+</div>","null","html-keyboard-response","555","675252","0.0-3.0-0.276","","fixation","","",""
"711","Set1/126a.jpg","79","image-keyboard-response","556","675965","0.0-3.0-1.276","","","Update","o","true"
"null","<div style=""font-size:60px;"">+</div>","null","html-keyboard-response","557","676470","0.0-3.0-0.277","","fixation","","",""
"null","Set1/009a.jpg","null","image-keyboard-response","558","686488","0.0-3.0-1.277","","","Set_1_Only","n","false"
"null","<div style=""font-size:60px;"">+</div>","null","html-keyboard-response","559","687004","0.0-3.0-0.278","","fixation","","",""
"950","Set1/046a.jpg","78","image-keyboard-response","560","687956","0.0-3.0-1.278","","","Repeat","n","true"
"null","<div style=""font-size:60px;"">+</div>","null","html-keyboard-response","561","688468","0.0-3.0-0.279","","fixation","","",""
"709","Set1/039a.jpg","79","image-keyboard-response","562","689179","0.0-3.0-1.279","","","Repeat","o","true"
"null","<div style=""font-size:60px;"">+</div>","null","html-keyboard-response","563","689686","0.0-3.0-0.280","","fixation","","",""
"668","Set1/001a.jpg","79","image-keyboard-response","564","690356","0.0-3.0-1.280","","","Set_1_Only","o","true"
"null","<div style=""font-size:60px;"">+</div>","null","html-keyboard-response","565","690868","0.0-3.0-0.281","","fixation","","",""
"1262","Set1/122a.jpg","79","image-keyboard-response","566","692132","0.0-3.0-1.281","","","Update","o","true"
"null","<div style=""font-size:60px;"">+</div>","null","html-keyboard-response","567","692635","0.0-3.0-0.282","","fixation","","",""
"582","Set1/086a.jpg","79","image-keyboard-response","568","693219","0.0-3.0-1.282","","","Repeat","o","true"
"null","<div style=""font-size:60px;"">+</div>","null","html-keyboard-response","569","693734","0.0-3.0-0.283","","fixation","","",""
"604","Set1/046a.jpg","78","image-keyboard-response","570","694339","0.0-3.0-1.283","","","Repeat","o","false"
"null","<div style=""font-size:60px;"">+</div>","null","html-keyboard-response","571","694852","0.0-3.0-0.284","","fixation","","",""
"774","Set1/043a.jpg","79","image-keyboard-response","572","695627","0.0-3.0-1.284","","","Repeat","o","true"
"null","<div style=""font-size:60px;"">+</div>","null","html-keyboard-response","573","696135","0.0-3.0-0.285","","fixation","","",""
"882","Set1/016a.jpg","78","image-keyboard-response","574","697020","0.0-3.0-1.285","","","Set_1_Only","n","true"
"null","<div style=""font-size:60px;"">+</div>","null","html-keyboard-response","575","697535","0.0-3.0-0.286","","fixation","","",""
"763","Set1/090a.jpg","78","image-keyboard-response","576","698300","0.0-3.0-1.286","","","Repeat","n","true"
"null","<div style=""font-size:60px;"">+</div>","null","html-keyboard-response","577","698802","0.0-3.0-0.287","","fixation","","",""
"696","Set1/141a.jpg","78","image-keyboard-response","578","699499","0.0-3.0-1.287","","","Update","n","true"
"null","<div style=""font-size:60px;"">+</div>","null","html-keyboard-response","579","700002","0.0-3.0-0.288","","fixation","","",""
"656","Set1/090a.jpg","79","image-keyboard-response","580","700660","0.0-3.0-1.288","","","Repeat","o","true"
"null","<div style=""font-size:60px;"">+</div>","null","html-keyboard-response","581","701168","0.0-3.0-0.289","","fixation","","",""
"650","Set1/139a.jpg","78","image-keyboard-response","582","701819","0.0-3.0-1.289","","","Update","n","true"
"null","<div style=""font-size:60px;"">+</div>","null","html-keyboard-response","583","702334","0.0-3.0-0.290","","fixation","","",""
"668","Set1/101a.jpg","78","image-keyboard-response","584","703003","0.0-3.0-1.290","","","Update","o","false"
"null","<div style=""font-size:60px;"">+</div>","null","html-keyboard-response","585","703520","0.0-3.0-0.291","","fixation","","",""
"618","Set1/092a.jpg","78","image-keyboard-response","586","704140","0.0-3.0-1.291","","","Repeat","n","true"
"null","<div style=""font-size:60px;"">+</div>","null","html-keyboard-response","587","704652","0.0-3.0-0.292","","fixation","","",""
"637","Set1/087a.jpg","78","image-keyboard-response","588","705291","0.0-3.0-1.292","","","Repeat","o","false"
"null","<div style=""font-size:60px;"">+</div>","null","html-keyboard-response","589","705800","0.0-3.0-0.293","","fixation","","",""
"610","Set1/034a.jpg","78","image-keyboard-response","590","706411","0.0-3.0-1.293","","","Repeat","n","true"
"null","<div style=""font-size:60px;"">+</div>","null","html-keyboard-response","591","706919","0.0-3.0-0.294","","fixation","","",""
"1243","Set1/153a.jpg","78","image-keyboard-response","592","708163","0.0-3.0-1.294","","","Update","n","true"
"null","<div style=""font-size:60px;"">+</div>","null","html-keyboard-response","593","708668","0.0-3.0-0.295","","fixation","","",""
"782","Set1/092a.jpg","78","image-keyboard-response","594","709452","0.0-3.0-1.295","","","Repeat","o","false"
"null","<div style=""font-size:60px;"">+</div>","null","html-keyboard-response","595","709967","0.0-3.0-0.296","","fixation","","",""
"835","Set1/077a.jpg","79","image-keyboard-response","596","710803","0.0-3.0-1.296","","","Repeat","o","true"
"null","<div style=""font-size:60px;"">+</div>","null","html-keyboard-response","597","711317","0.0-3.0-0.297","","fixation","","",""
"837","Set1/112a.jpg","78","image-keyboard-response","598","712155","0.0-3.0-1.297","","","Update","n","true"
"null","<div style=""font-size:60px;"">+</div>","null","html-keyboard-response","599","712671","0.0-3.0-0.298","","fixation","","",""
"971","Set1/018a.jpg","78","image-keyboard-response","600","713643","0.0-3.0-1.298","","","Set_1_Only","o","false"
"null","<div style=""font-size:60px;"">+</div>","null","html-keyboard-response","601","714153","0.0-3.0-0.299","","fixation","","",""
"801","Set1/139a.jpg","79","image-keyboard-response","602","714955","0.0-3.0-1.299","","","Update","o","true"
"null","<div style=""font-size:60px;"">+</div>","null","html-keyboard-response","603","715469","0.0-3.0-0.300","","fixation","","",""
"749","Set1/153a.jpg","79","image-keyboard-response","604","716219","0.0-3.0-1.300","","","Update","o","true"
"null","<div style=""font-size:60px;"">+</div>","null","html-keyboard-response","605","716734","0.0-3.0-0.301","","fixation","","",""
"932","Set1/017a.jpg","78","image-keyboard-response","606","717667","0.0-3.0-1.301","","","Set_1_Only","o","false"
"null","<div style=""font-size:60px;"">+</div>","null","html-keyboard-response","607","718169","0.0-3.0-0.302","","fixation","","",""
"672","Set1/112a.jpg","79","image-keyboard-response","608","718843","0.0-3.0-1.302","","","Update","o","true"
"null","<div style=""font-size:60px;"">+</div>","null","html-keyboard-response","609","719351","0.0-3.0-0.303","","fixation","","",""
"771","Set1/109a.jpg","78","image-keyboard-response","610","720123","0.0-3.0-1.303","","","Update","o","false"
"null","<div style=""font-size:60px;"">+</div>","null","html-keyboard-response","611","720634","0.0-3.0-0.304","","fixation","","",""
"648","Set1/021a.jpg","78","image-keyboard-response","612","721283","0.0-3.0-1.304","","","Set_1_Only","o","false"
"null","<div style=""font-size:60px;"">+</div>","null","html-keyboard-response","613","721800","0.0-3.0-0.305","","fixation","","",""
"610","Set1/142a.jpg","78","image-keyboard-response","614","722411","0.0-3.0-1.305","","","Update","o","false"
"null","<div style=""font-size:60px;"">+</div>","null","html-keyboard-response","615","722922","0.0-3.0-0.306","","fixation","","",""
"null","Set1/113a.jpg","null","image-keyboard-response","616","732940","0.0-3.0-1.306","","","Update","n","false"
"null","<div style=""font-size:60px;"">+</div>","null","html-keyboard-response","617","733456","0.0-3.0-0.307","","fixation","","",""
"810","Set1/016a.jpg","79","image-keyboard-response","618","734268","0.0-3.0-1.307","","","Set_1_Only","o","true"
"null","<div style=""font-size:60px;"">+</div>","null","html-keyboard-response","619","734770","0.0-3.0-0.308","","fixation","","",""
"880","Set1/061a.jpg","78","image-keyboard-response","620","735651","0.0-3.0-1.308","","","Repeat","o","false"
"null","<div style=""font-size:60px;"">+</div>","null","html-keyboard-response","621","736153","0.0-3.0-0.309","","fixation","","",""
"888","Set1/009a.jpg","78","image-keyboard-response","622","737044","0.0-3.0-1.309","","","Set_1_Only","o","false"
"null","<div style=""font-size:60px;"">+</div>","null","html-keyboard-response","623","737552","0.0-3.0-0.310","","fixation","","",""
"714","Set1/141a.jpg","79","image-keyboard-response","624","738267","0.0-3.0-1.310","","","Update","o","true"
"null","<div style=""font-size:60px;"">+</div>","null","html-keyboard-response","625","738770","0.0-3.0-0.311","","fixation","","",""
"640","Set1/011a.jpg","79","image-keyboard-response","626","739411","0.0-3.0-1.311","","","Set_1_Only","o","true"
"null","<div style=""font-size:60px;"">+</div>","null","html-keyboard-response","627","739918","0.0-3.0-0.312","","fixation","","",""
"956","Set1/113a.jpg","78","image-keyboard-response","628","740876","0.0-3.0-1.312","","","Update","o","false"
"null","<div style=""font-size:60px;"">+</div>","null","html-keyboard-response","629","741385","0.0-3.0-0.313","","fixation","","",""
"833","Set1/058a.jpg","78","image-keyboard-response","630","742219","0.0-3.0-1.313","","","Repeat","o","false"
"null","<div style=""font-size:60px;"">+</div>","null","html-keyboard-response","631","742734","0.0-3.0-0.314","","fixation","","",""
"1532","Set1/083a.jpg","78","image-keyboard-response","632","744267","0.0-3.0-1.314","","","Repeat","o","false"
"null","<div style=""font-size:60px;"">+</div>","null","html-keyboard-response","633","744770","0.0-3.0-0.315","","fixation","","",""
"857","Set1/029a.jpg","79","image-keyboard-response","634","745628","0.0-3.0-1.315","","","Set_1_Only","o","true"
"null","<div style=""font-size:60px;"">+</div>","null","html-keyboard-response","635","746135","0.0-3.0-0.316","","fixation","","",""
"1019","Set1/034a.jpg","79","image-keyboard-response","636","747155","0.0-3.0-1.316","","","Repeat","o","true"
"null","<div style=""font-size:60px;"">+</div>","null","html-keyboard-response","637","747671","0.0-3.0-0.317","","fixation","","",""
"613","Set1/070a.jpg","79","image-keyboard-response","638","748285","0.0-3.0-1.317","","","Repeat","o","true"
"null","<div style=""font-size:60px;"">+</div>","null","html-keyboard-response","639","748887","0.0-3.0-0.318","","fixation","","",""
"659","Set1/098a.jpg","79","image-keyboard-response","640","749549","0.0-3.0-1.318","","","Update","o","true"
"null","<div style=""font-size:60px;"">+</div>","null","html-keyboard-response","641","750056","0.0-3.0-0.319","","fixation","","",""
"1980","Set1/007a.jpg","79","image-keyboard-response","642","752037","0.0-3.0-1.319","","","Set_1_Only","o","true"
