"rt","stimulus","key_press","trial_type","trial_index","time_elapsed","internal_node_id","responses","test_part","stim_type","correct_response","correct"
"30685","Press any key to begin.","66","html-keyboard-response","0","30727","0.0-0.0","","","","",""
"13493","","","survey-text","1","44223","0.0-1.0","{""Q0"":""Set1_128715"",""Q1"":""Set1_128715""}","","","",""
"25187","<p>In this experiment you will see a series of everyday objects presented one at a time at the center of the screen. Each image will be presented twice. </p><p>The first time you see the image, press the N key to indicate that it is a NEW image. The second time you see the image, press the O key to indicate that it is an OLD image.</p><div style='width: 700px;'></div><p>Press any key to begin.</p>","78","html-keyboard-response","2","69412","0.0-2.0","","","","",""
"null","<div style=""font-size:60px;"">+</div>","null","html-keyboard-response","3","71916","0.0-3.0-0.0","","fixation","","",""
"2223","Set1/063a.jpg","78","image-keyboard-response","4","74144","0.0-3.0-1.0","","","Repeat","n","true"
"null","<div style=""font-size:60px;"">+</div>","null","html-keyboard-response","5","74646","0.0-3.0-0.1","","fixation","","",""
"1543","Set1/064a.jpg","78","image-keyboard-response","6","76190","0.0-3.0-1.1","","","Repeat","n","true"
"null","<div style=""font-size:60px;"">+</div>","null","html-keyboard-response","7","76693","0.0-3.0-0.2","","fixation","","",""
"1412","Set1/047a.jpg","78","image-keyboard-response","8","78106","0.0-3.0-1.2","","","Repeat","n","true"
"null","<div style=""font-size:60px;"">+</div>","null","html-keyboard-response","9","78609","0.0-3.0-0.3","","fixation","","",""
"1536","Set1/025a.jpg","78","image-keyboard-response","10","80146","0.0-3.0-1.3","","","Set_1_Only","n","true"
"null","<div style=""font-size:60px;"">+</div>","null","html-keyboard-response","11","80647","0.0-3.0-0.4","","fixation","","",""
"1345","Set1/146a.jpg","78","image-keyboard-response","12","81993","0.0-3.0-1.4","","","Update","n","true"
"null","<div style=""font-size:60px;"">+</div>","null","html-keyboard-response","13","82496","0.0-3.0-0.5","","fixation","","",""
"1585","Set1/020a.jpg","78","image-keyboard-response","14","84083","0.0-3.0-1.5","","","Set_1_Only","n","true"
"null","<div style=""font-size:60px;"">+</div>","null","html-keyboard-response","15","84585","0.0-3.0-0.6","","fixation","","",""
"1799","Set1/120a.jpg","78","image-keyboard-response","16","86385","0.0-3.0-1.6","","","Update","n","true"
"null","<div style=""font-size:60px;"">+</div>","null","html-keyboard-response","17","86886","0.0-3.0-0.7","","fixation","","",""
"1526","Set1/148a.jpg","78","image-keyboard-response","18","88413","0.0-3.0-1.7","","","Update","n","true"
"null","<div style=""font-size:60px;"">+</div>","null","html-keyboard-response","19","88915","0.0-3.0-0.8","","fixation","","",""
"1289","Set1/028a.jpg","78","image-keyboard-response","20","90205","0.0-3.0-1.8","","","Set_1_Only","n","true"
"null","<div style=""font-size:60px;"">+</div>","null","html-keyboard-response","21","90706","0.0-3.0-0.9","","fixation","","",""
"1300","Set1/071a.jpg","78","image-keyboard-response","22","92007","0.0-3.0-1.9","","","Repeat","n","true"
"null","<div style=""font-size:60px;"">+</div>","null","html-keyboard-response","23","92510","0.0-3.0-0.10","","fixation","","",""
"1225","Set1/030a.jpg","78","image-keyboard-response","24","93736","0.0-3.0-1.10","","","Set_1_Only","n","true"
"null","<div style=""font-size:60px;"">+</div>","null","html-keyboard-response","25","94238","0.0-3.0-0.11","","fixation","","",""
"1450","Set1/037a.jpg","78","image-keyboard-response","26","95689","0.0-3.0-1.11","","","Repeat","n","true"
"null","<div style=""font-size:60px;"">+</div>","null","html-keyboard-response","27","96191","0.0-3.0-0.12","","fixation","","",""
"1499","Set1/120a.jpg","79","image-keyboard-response","28","97691","0.0-3.0-1.12","","","Update","o","true"
"null","<div style=""font-size:60px;"">+</div>","null","html-keyboard-response","29","98194","0.0-3.0-0.13","","fixation","","",""
"1216","Set1/005a.jpg","78","image-keyboard-response","30","99412","0.0-3.0-1.13","","","Set_1_Only","n","true"
"null","<div style=""font-size:60px;"">+</div>","null","html-keyboard-response","31","99914","0.0-3.0-0.14","","fixation","","",""
"986","Set1/079a.jpg","78","image-keyboard-response","32","100902","0.0-3.0-1.14","","","Repeat","n","true"
"null","<div style=""font-size:60px;"">+</div>","null","html-keyboard-response","33","101404","0.0-3.0-0.15","","fixation","","",""
"1341","Set1/136a.jpg","78","image-keyboard-response","34","102746","0.0-3.0-1.15","","","Update","n","true"
"null","<div style=""font-size:60px;"">+</div>","null","html-keyboard-response","35","103248","0.0-3.0-0.16","","fixation","","",""
"866","Set1/133a.jpg","78","image-keyboard-response","36","104115","0.0-3.0-1.16","","","Update","n","true"
"null","<div style=""font-size:60px;"">+</div>","null","html-keyboard-response","37","104617","0.0-3.0-0.17","","fixation","","",""
"610","Set1/128a.jpg","78","image-keyboard-response","38","105228","0.0-3.0-1.17","","","Update","n","true"
"null","<div style=""font-size:60px;"">+</div>","null","html-keyboard-response","39","105729","0.0-3.0-0.18","","fixation","","",""
"671","Set1/054a.jpg","78","image-keyboard-response","40","106401","0.0-3.0-1.18","","","Repeat","n","true"
"null","<div style=""font-size:60px;"">+</div>","null","html-keyboard-response","41","106903","0.0-3.0-0.19","","fixation","","",""
"635","Set1/108a.jpg","78","image-keyboard-response","42","107540","0.0-3.0-1.19","","","Update","n","true"
"null","<div style=""font-size:60px;"">+</div>","null","html-keyboard-response","43","108041","0.0-3.0-0.20","","fixation","","",""
"1664","Set1/050a.jpg","78","image-keyboard-response","44","109706","0.0-3.0-1.20","","","Repeat","n","true"
"null","<div style=""font-size:60px;"">+</div>","null","html-keyboard-response","45","110208","0.0-3.0-0.21","","fixation","","",""
"624","Set1/140a.jpg","78","image-keyboard-response","46","110833","0.0-3.0-1.21","","","Update","n","true"
"null","<div style=""font-size:60px;"">+</div>","null","html-keyboard-response","47","111334","0.0-3.0-0.22","","fixation","","",""
"703","Set1/051a.jpg","78","image-keyboard-response","48","112039","0.0-3.0-1.22","","","Repeat","n","true"
"null","<div style=""font-size:60px;"">+</div>","null","html-keyboard-response","49","112540","0.0-3.0-0.23","","fixation","","",""
"999","Set1/063a.jpg","79","image-keyboard-response","50","113541","0.0-3.0-1.23","","","Repeat","o","true"
"null","<div style=""font-size:60px;"">+</div>","null","html-keyboard-response","51","114042","0.0-3.0-0.24","","fixation","","",""
"1064","Set1/006a.jpg","78","image-keyboard-response","52","115107","0.0-3.0-1.24","","","Set_1_Only","n","true"
"null","<div style=""font-size:60px;"">+</div>","null","html-keyboard-response","53","115609","0.0-3.0-0.25","","fixation","","",""
"1021","Set1/158a.jpg","78","image-keyboard-response","54","116631","0.0-3.0-1.25","","","Update","n","true"
"null","<div style=""font-size:60px;"">+</div>","null","html-keyboard-response","55","117133","0.0-3.0-0.26","","fixation","","",""
"689","Set1/020a.jpg","79","image-keyboard-response","56","117824","0.0-3.0-1.26","","","Set_1_Only","o","true"
"null","<div style=""font-size:60px;"">+</div>","null","html-keyboard-response","57","118325","0.0-3.0-0.27","","fixation","","",""
"743","Set1/082a.jpg","78","image-keyboard-response","58","119069","0.0-3.0-1.27","","","Repeat","n","true"
"null","<div style=""font-size:60px;"">+</div>","null","html-keyboard-response","59","119570","0.0-3.0-0.28","","fixation","","",""
"673","Set1/107a.jpg","78","image-keyboard-response","60","120245","0.0-3.0-1.28","","","Update","n","true"
"null","<div style=""font-size:60px;"">+</div>","null","html-keyboard-response","61","120746","0.0-3.0-0.29","","fixation","","",""
"636","Set1/121a.jpg","78","image-keyboard-response","62","121384","0.0-3.0-1.29","","","Update","n","true"
"null","<div style=""font-size:60px;"">+</div>","null","html-keyboard-response","63","121886","0.0-3.0-0.30","","fixation","","",""
"1035","Set1/085a.jpg","78","image-keyboard-response","64","122922","0.0-3.0-1.30","","","Repeat","n","true"
"null","<div style=""font-size:60px;"">+</div>","null","html-keyboard-response","65","123424","0.0-3.0-0.31","","fixation","","",""
"882","Set1/136a.jpg","79","image-keyboard-response","66","124308","0.0-3.0-1.31","","","Update","o","true"
"null","<div style=""font-size:60px;"">+</div>","null","html-keyboard-response","67","124809","0.0-3.0-0.32","","fixation","","",""
"874","Set1/049a.jpg","78","image-keyboard-response","68","125685","0.0-3.0-1.32","","","Repeat","n","true"
"null","<div style=""font-size:60px;"">+</div>","null","html-keyboard-response","69","126194","0.0-3.0-0.33","","fixation","","",""
"679","Set1/133a.jpg","79","image-keyboard-response","70","126875","0.0-3.0-1.33","","","Update","o","true"
"null","<div style=""font-size:60px;"">+</div>","null","html-keyboard-response","71","127377","0.0-3.0-0.34","","fixation","","",""
"1031","Set1/093a.jpg","78","image-keyboard-response","72","128410","0.0-3.0-1.34","","","Repeat","n","true"
"null","<div style=""font-size:60px;"">+</div>","null","html-keyboard-response","73","128912","0.0-3.0-0.35","","fixation","","",""
"699","Set1/064a.jpg","79","image-keyboard-response","74","129612","0.0-3.0-1.35","","","Repeat","o","true"
"null","<div style=""font-size:60px;"">+</div>","null","html-keyboard-response","75","130114","0.0-3.0-0.36","","fixation","","",""
"793","Set1/005a.jpg","79","image-keyboard-response","76","130909","0.0-3.0-1.36","","","Set_1_Only","o","true"
"null","<div style=""font-size:60px;"">+</div>","null","html-keyboard-response","77","131411","0.0-3.0-0.37","","fixation","","",""
"685","Set1/128a.jpg","79","image-keyboard-response","78","132097","0.0-3.0-1.37","","","Update","o","true"
"null","<div style=""font-size:60px;"">+</div>","null","html-keyboard-response","79","132599","0.0-3.0-0.38","","fixation","","",""
"755","Set1/044a.jpg","78","image-keyboard-response","80","133355","0.0-3.0-1.38","","","Repeat","n","true"
"null","<div style=""font-size:60px;"">+</div>","null","html-keyboard-response","81","133856","0.0-3.0-0.39","","fixation","","",""
"1084","Set1/037a.jpg","79","image-keyboard-response","82","134942","0.0-3.0-1.39","","","Repeat","o","true"
"null","<div style=""font-size:60px;"">+</div>","null","html-keyboard-response","83","135444","0.0-3.0-0.40","","fixation","","",""
"826","Set1/088a.jpg","78","image-keyboard-response","84","136271","0.0-3.0-1.40","","","Repeat","n","true"
"null","<div style=""font-size:60px;"">+</div>","null","html-keyboard-response","85","136774","0.0-3.0-0.41","","fixation","","",""
"882","Set1/106a.jpg","78","image-keyboard-response","86","137657","0.0-3.0-1.41","","","Update","n","true"
"null","<div style=""font-size:60px;"">+</div>","null","html-keyboard-response","87","138159","0.0-3.0-0.42","","fixation","","",""
"736","Set1/031a.jpg","78","image-keyboard-response","88","138896","0.0-3.0-1.42","","","Set_1_Only","n","true"
"null","<div style=""font-size:60px;"">+</div>","null","html-keyboard-response","89","139399","0.0-3.0-0.43","","fixation","","",""
"973","Set1/160a.jpg","78","image-keyboard-response","90","140373","0.0-3.0-1.43","","","Update","n","true"
"null","<div style=""font-size:60px;"">+</div>","null","html-keyboard-response","91","140873","0.0-3.0-0.44","","fixation","","",""
"793","Set1/025a.jpg","79","image-keyboard-response","92","141668","0.0-3.0-1.44","","","Set_1_Only","o","true"
"null","<div style=""font-size:60px;"">+</div>","null","html-keyboard-response","93","142170","0.0-3.0-0.45","","fixation","","",""
"876","Set1/088a.jpg","79","image-keyboard-response","94","143047","0.0-3.0-1.45","","","Repeat","o","true"
"null","<div style=""font-size:60px;"">+</div>","null","html-keyboard-response","95","143550","0.0-3.0-0.46","","fixation","","",""
"676","Set1/093a.jpg","79","image-keyboard-response","96","144226","0.0-3.0-1.46","","","Repeat","o","true"
"null","<div style=""font-size:60px;"">+</div>","null","html-keyboard-response","97","144729","0.0-3.0-0.47","","fixation","","",""
"633","Set1/054a.jpg","79","image-keyboard-response","98","145364","0.0-3.0-1.47","","","Repeat","o","true"
"null","<div style=""font-size:60px;"">+</div>","null","html-keyboard-response","99","145866","0.0-3.0-0.48","","fixation","","",""
"745","Set1/105a.jpg","78","image-keyboard-response","100","146612","0.0-3.0-1.48","","","Update","n","true"
"null","<div style=""font-size:60px;"">+</div>","null","html-keyboard-response","101","147113","0.0-3.0-0.49","","fixation","","",""
"674","Set1/045a.jpg","78","image-keyboard-response","102","147788","0.0-3.0-1.49","","","Repeat","n","true"
"null","<div style=""font-size:60px;"">+</div>","null","html-keyboard-response","103","148291","0.0-3.0-0.50","","fixation","","",""
"769","Set1/006a.jpg","79","image-keyboard-response","104","149062","0.0-3.0-1.50","","","Set_1_Only","o","true"
"null","<div style=""font-size:60px;"">+</div>","null","html-keyboard-response","105","149564","0.0-3.0-0.51","","fixation","","",""
"719","Set1/140a.jpg","79","image-keyboard-response","106","150284","0.0-3.0-1.51","","","Update","o","true"
"null","<div style=""font-size:60px;"">+</div>","null","html-keyboard-response","107","150786","0.0-3.0-0.52","","fixation","","",""
"715","Set1/027a.jpg","78","image-keyboard-response","108","151503","0.0-3.0-1.52","","","Set_1_Only","n","true"
"null","<div style=""font-size:60px;"">+</div>","null","html-keyboard-response","109","152004","0.0-3.0-0.53","","fixation","","",""
"1095","Set1/049a.jpg","79","image-keyboard-response","110","153102","0.0-3.0-1.53","","","Repeat","o","true"
"null","<div style=""font-size:60px;"">+</div>","null","html-keyboard-response","111","153603","0.0-3.0-0.54","","fixation","","",""
"843","Set1/051a.jpg","79","image-keyboard-response","112","154447","0.0-3.0-1.54","","","Repeat","o","true"
"null","<div style=""font-size:60px;"">+</div>","null","html-keyboard-response","113","154949","0.0-3.0-0.55","","fixation","","",""
"782","Set1/028a.jpg","79","image-keyboard-response","114","155732","0.0-3.0-1.55","","","Set_1_Only","o","true"
"null","<div style=""font-size:60px;"">+</div>","null","html-keyboard-response","115","156233","0.0-3.0-0.56","","fixation","","",""
"602","Set1/047a.jpg","79","image-keyboard-response","116","156836","0.0-3.0-1.56","","","Repeat","o","true"
"null","<div style=""font-size:60px;"">+</div>","null","html-keyboard-response","117","157338","0.0-3.0-0.57","","fixation","","",""
"603","Set1/071a.jpg","79","image-keyboard-response","118","157943","0.0-3.0-1.57","","","Repeat","o","true"
"null","<div style=""font-size:60px;"">+</div>","null","html-keyboard-response","119","158444","0.0-3.0-0.58","","fixation","","",""
"614","Set1/108a.jpg","79","image-keyboard-response","120","159059","0.0-3.0-1.58","","","Update","o","true"
"null","<div style=""font-size:60px;"">+</div>","null","html-keyboard-response","121","159562","0.0-3.0-0.59","","fixation","","",""
"751","Set1/027a.jpg","79","image-keyboard-response","122","160314","0.0-3.0-1.59","","","Set_1_Only","o","true"
"null","<div style=""font-size:60px;"">+</div>","null","html-keyboard-response","123","160818","0.0-3.0-0.60","","fixation","","",""
"616","Set1/044a.jpg","79","image-keyboard-response","124","161435","0.0-3.0-1.60","","","Repeat","o","true"
"null","<div style=""font-size:60px;"">+</div>","null","html-keyboard-response","125","161937","0.0-3.0-0.61","","fixation","","",""
"540","Set1/045a.jpg","79","image-keyboard-response","126","162479","0.0-3.0-1.61","","","Repeat","o","true"
"null","<div style=""font-size:60px;"">+</div>","null","html-keyboard-response","127","162980","0.0-3.0-0.62","","fixation","","",""
"1577","Set1/134a.jpg","78","image-keyboard-response","128","164558","0.0-3.0-1.62","","","Update","n","true"
"null","<div style=""font-size:60px;"">+</div>","null","html-keyboard-response","129","165061","0.0-3.0-0.63","","fixation","","",""
"748","Set1/158a.jpg","79","image-keyboard-response","130","165811","0.0-3.0-1.63","","","Update","o","true"
"null","<div style=""font-size:60px;"">+</div>","null","html-keyboard-response","131","166312","0.0-3.0-0.64","","fixation","","",""
"728","Set1/106a.jpg","79","image-keyboard-response","132","167041","0.0-3.0-1.64","","","Update","o","true"
"null","<div style=""font-size:60px;"">+</div>","null","html-keyboard-response","133","167544","0.0-3.0-0.65","","fixation","","",""
"1037","Set1/119a.jpg","78","image-keyboard-response","134","168583","0.0-3.0-1.65","","","Update","n","true"
"null","<div style=""font-size:60px;"">+</div>","null","html-keyboard-response","135","169085","0.0-3.0-0.66","","fixation","","",""
"789","Set1/105a.jpg","79","image-keyboard-response","136","169877","0.0-3.0-1.66","","","Update","o","true"
"null","<div style=""font-size:60px;"">+</div>","null","html-keyboard-response","137","170378","0.0-3.0-0.67","","fixation","","",""
"1401","Set1/119a.jpg","79","image-keyboard-response","138","171782","0.0-3.0-1.67","","","Update","o","true"
"null","<div style=""font-size:60px;"">+</div>","null","html-keyboard-response","139","172284","0.0-3.0-0.68","","fixation","","",""
"778","Set1/148a.jpg","79","image-keyboard-response","140","173063","0.0-3.0-1.68","","","Update","o","true"
"null","<div style=""font-size:60px;"">+</div>","null","html-keyboard-response","141","173565","0.0-3.0-0.69","","fixation","","",""
"637","Set1/031a.jpg","79","image-keyboard-response","142","174204","0.0-3.0-1.69","","","Set_1_Only","o","true"
"null","<div style=""font-size:60px;"">+</div>","null","html-keyboard-response","143","174706","0.0-3.0-0.70","","fixation","","",""
"676","Set1/050a.jpg","79","image-keyboard-response","144","175384","0.0-3.0-1.70","","","Repeat","o","true"
"null","<div style=""font-size:60px;"">+</div>","null","html-keyboard-response","145","175885","0.0-3.0-0.71","","fixation","","",""
"562","Set1/082a.jpg","79","image-keyboard-response","146","176448","0.0-3.0-1.71","","","Repeat","o","true"
"null","<div style=""font-size:60px;"">+</div>","null","html-keyboard-response","147","176950","0.0-3.0-0.72","","fixation","","",""
"540","Set1/085a.jpg","79","image-keyboard-response","148","177490","0.0-3.0-1.72","","","Repeat","o","true"
"null","<div style=""font-size:60px;"">+</div>","null","html-keyboard-response","149","177992","0.0-3.0-0.73","","fixation","","",""
"1097","Set1/030a.jpg","78","image-keyboard-response","150","179090","0.0-3.0-1.73","","","Set_1_Only","o","false"
"null","<div style=""font-size:60px;"">+</div>","null","html-keyboard-response","151","179592","0.0-3.0-0.74","","fixation","","",""
"690","Set1/160a.jpg","79","image-keyboard-response","152","180283","0.0-3.0-1.74","","","Update","o","true"
"null","<div style=""font-size:60px;"">+</div>","null","html-keyboard-response","153","180786","0.0-3.0-0.75","","fixation","","",""
"719","Set1/134a.jpg","79","image-keyboard-response","154","181506","0.0-3.0-1.75","","","Update","o","true"
"null","<div style=""font-size:60px;"">+</div>","null","html-keyboard-response","155","182008","0.0-3.0-0.76","","fixation","","",""
"684","Set1/146a.jpg","79","image-keyboard-response","156","182693","0.0-3.0-1.76","","","Update","o","true"
"null","<div style=""font-size:60px;"">+</div>","null","html-keyboard-response","157","183195","0.0-3.0-0.77","","fixation","","",""
"788","Set1/107a.jpg","79","image-keyboard-response","158","183984","0.0-3.0-1.77","","","Update","o","true"
"null","<div style=""font-size:60px;"">+</div>","null","html-keyboard-response","159","184485","0.0-3.0-0.78","","fixation","","",""
"528","Set1/079a.jpg","79","image-keyboard-response","160","185016","0.0-3.0-1.78","","","Repeat","o","true"
"null","<div style=""font-size:60px;"">+</div>","null","html-keyboard-response","161","185518","0.0-3.0-0.79","","fixation","","",""
"573","Set1/121a.jpg","79","image-keyboard-response","162","186093","0.0-3.0-1.79","","","Update","o","true"
"null","<div style=""font-size:60px;"">+</div>","null","html-keyboard-response","163","186595","0.0-3.0-0.80","","fixation","","",""
"1145","Set1/095a.jpg","78","image-keyboard-response","164","187741","0.0-3.0-1.80","","","Repeat","n","true"
"null","<div style=""font-size:60px;"">+</div>","null","html-keyboard-response","165","188244","0.0-3.0-0.81","","fixation","","",""
"871","Set1/041a.jpg","78","image-keyboard-response","166","189117","0.0-3.0-1.81","","","Repeat","n","true"
"null","<div style=""font-size:60px;"">+</div>","null","html-keyboard-response","167","189619","0.0-3.0-0.82","","fixation","","",""
"697","Set1/100a.jpg","78","image-keyboard-response","168","190318","0.0-3.0-1.82","","","Update","n","true"
"null","<div style=""font-size:60px;"">+</div>","null","html-keyboard-response","169","190819","0.0-3.0-0.83","","fixation","","",""
"673","Set1/036a.jpg","78","image-keyboard-response","170","191493","0.0-3.0-1.83","","","Repeat","n","true"
"null","<div style=""font-size:60px;"">+</div>","null","html-keyboard-response","171","191995","0.0-3.0-0.84","","fixation","","",""
"586","Set1/115a.jpg","78","image-keyboard-response","172","192583","0.0-3.0-1.84","","","Update","n","true"
"null","<div style=""font-size:60px;"">+</div>","null","html-keyboard-response","173","193085","0.0-3.0-0.85","","fixation","","",""
"759","Set1/123a.jpg","78","image-keyboard-response","174","193845","0.0-3.0-1.85","","","Update","n","true"
"null","<div style=""font-size:60px;"">+</div>","null","html-keyboard-response","175","194348","0.0-3.0-0.86","","fixation","","",""
"634","Set1/015a.jpg","78","image-keyboard-response","176","194985","0.0-3.0-1.86","","","Set_1_Only","n","true"
"null","<div style=""font-size:60px;"">+</div>","null","html-keyboard-response","177","195487","0.0-3.0-0.87","","fixation","","",""
"980","Set1/096a.jpg","78","image-keyboard-response","178","196468","0.0-3.0-1.87","","","Repeat","n","true"
"null","<div style=""font-size:60px;"">+</div>","null","html-keyboard-response","179","196970","0.0-3.0-0.88","","fixation","","",""
"1101","Set1/110a.jpg","78","image-keyboard-response","180","198072","0.0-3.0-1.88","","","Update","n","true"
"null","<div style=""font-size:60px;"">+</div>","null","html-keyboard-response","181","198575","0.0-3.0-0.89","","fixation","","",""
"643","Set1/151a.jpg","78","image-keyboard-response","182","199220","0.0-3.0-1.89","","","Update","n","true"
"null","<div style=""font-size:60px;"">+</div>","null","html-keyboard-response","183","199721","0.0-3.0-0.90","","fixation","","",""
"773","Set1/035a.jpg","78","image-keyboard-response","184","200495","0.0-3.0-1.90","","","Repeat","n","true"
"null","<div style=""font-size:60px;"">+</div>","null","html-keyboard-response","185","200998","0.0-3.0-0.91","","fixation","","",""
"784","Set1/026a.jpg","78","image-keyboard-response","186","201783","0.0-3.0-1.91","","","Set_1_Only","n","true"
"null","<div style=""font-size:60px;"">+</div>","null","html-keyboard-response","187","202285","0.0-3.0-0.92","","fixation","","",""
"641","Set1/067a.jpg","78","image-keyboard-response","188","202927","0.0-3.0-1.92","","","Repeat","n","true"
"null","<div style=""font-size:60px;"">+</div>","null","html-keyboard-response","189","203429","0.0-3.0-0.93","","fixation","","",""
"511","Set1/076a.jpg","78","image-keyboard-response","190","203941","0.0-3.0-1.93","","","Repeat","n","true"
"null","<div style=""font-size:60px;"">+</div>","null","html-keyboard-response","191","204443","0.0-3.0-0.94","","fixation","","",""
"778","Set1/125a.jpg","78","image-keyboard-response","192","205222","0.0-3.0-1.94","","","Update","n","true"
"null","<div style=""font-size:60px;"">+</div>","null","html-keyboard-response","193","205723","0.0-3.0-0.95","","fixation","","",""
"835","Set1/123a.jpg","79","image-keyboard-response","194","206560","0.0-3.0-1.95","","","Update","o","true"
"null","<div style=""font-size:60px;"">+</div>","null","html-keyboard-response","195","207062","0.0-3.0-0.96","","fixation","","",""
"720","Set1/076a.jpg","79","image-keyboard-response","196","207783","0.0-3.0-1.96","","","Repeat","o","true"
"null","<div style=""font-size:60px;"">+</div>","null","html-keyboard-response","197","208285","0.0-3.0-0.97","","fixation","","",""
"847","Set1/151a.jpg","79","image-keyboard-response","198","209134","0.0-3.0-1.97","","","Update","o","true"
"null","<div style=""font-size:60px;"">+</div>","null","html-keyboard-response","199","209635","0.0-3.0-0.98","","fixation","","",""
"591","Set1/115a.jpg","79","image-keyboard-response","200","210228","0.0-3.0-1.98","","","Update","o","true"
"null","<div style=""font-size:60px;"">+</div>","null","html-keyboard-response","201","210731","0.0-3.0-0.99","","fixation","","",""
"736","Set1/081a.jpg","78","image-keyboard-response","202","211468","0.0-3.0-1.99","","","Repeat","n","true"
"null","<div style=""font-size:60px;"">+</div>","null","html-keyboard-response","203","211970","0.0-3.0-0.100","","fixation","","",""
"746","Set1/015a.jpg","78","image-keyboard-response","204","212717","0.0-3.0-1.100","","","Set_1_Only","o","false"
"null","<div style=""font-size:60px;"">+</div>","null","html-keyboard-response","205","213219","0.0-3.0-0.101","","fixation","","",""
"731","Set1/035a.jpg","79","image-keyboard-response","206","213951","0.0-3.0-1.101","","","Repeat","o","true"
"null","<div style=""font-size:60px;"">+</div>","null","html-keyboard-response","207","214452","0.0-3.0-0.102","","fixation","","",""
"860","Set1/014a.jpg","78","image-keyboard-response","208","215314","0.0-3.0-1.102","","","Set_1_Only","n","true"
"null","<div style=""font-size:60px;"">+</div>","null","html-keyboard-response","209","215816","0.0-3.0-0.103","","fixation","","",""
"816","Set1/152a.jpg","78","image-keyboard-response","210","216633","0.0-3.0-1.103","","","Update","n","true"
"null","<div style=""font-size:60px;"">+</div>","null","html-keyboard-response","211","217135","0.0-3.0-0.104","","fixation","","",""
"1179","Set1/114a.jpg","78","image-keyboard-response","212","218315","0.0-3.0-1.104","","","Update","n","true"
"null","<div style=""font-size:60px;"">+</div>","null","html-keyboard-response","213","218818","0.0-3.0-0.105","","fixation","","",""
"1774","Set1/019a.jpg","78","image-keyboard-response","214","220593","0.0-3.0-1.105","","","Set_1_Only","n","true"
"null","<div style=""font-size:60px;"">+</div>","null","html-keyboard-response","215","221095","0.0-3.0-0.106","","fixation","","",""
"597","Set1/013a.jpg","78","image-keyboard-response","216","221694","0.0-3.0-1.106","","","Set_1_Only","n","true"
"null","<div style=""font-size:60px;"">+</div>","null","html-keyboard-response","217","222197","0.0-3.0-0.107","","fixation","","",""
"null","Set1/053a.jpg","null","image-keyboard-response","218","232199","0.0-3.0-1.107","","","Repeat","n","false"
"null","<div style=""font-size:60px;"">+</div>","null","html-keyboard-response","219","232701","0.0-3.0-0.108","","fixation","","",""
"1706","Set1/026a.jpg","79","image-keyboard-response","220","234409","0.0-3.0-1.108","","","Set_1_Only","o","true"
"null","<div style=""font-size:60px;"">+</div>","null","html-keyboard-response","221","234910","0.0-3.0-0.109","","fixation","","",""
"2479","Set1/138a.jpg","78","image-keyboard-response","222","237391","0.0-3.0-1.109","","","Update","n","true"
"null","<div style=""font-size:60px;"">+</div>","null","html-keyboard-response","223","237893","0.0-3.0-0.110","","fixation","","",""
"695","Set1/010a.jpg","78","image-keyboard-response","224","238590","0.0-3.0-1.110","","","Set_1_Only","n","true"
"null","<div style=""font-size:60px;"">+</div>","null","html-keyboard-response","225","239091","0.0-3.0-0.111","","fixation","","",""
"907","Set1/008a.jpg","78","image-keyboard-response","226","239999","0.0-3.0-1.111","","","Set_1_Only","n","true"
"null","<div style=""font-size:60px;"">+</div>","null","html-keyboard-response","227","240501","0.0-3.0-0.112","","fixation","","",""
"1018","Set1/036a.jpg","79","image-keyboard-response","228","241520","0.0-3.0-1.112","","","Repeat","o","true"
"null","<div style=""font-size:60px;"">+</div>","null","html-keyboard-response","229","242023","0.0-3.0-0.113","","fixation","","",""
"628","Set1/081a.jpg","79","image-keyboard-response","230","242653","0.0-3.0-1.113","","","Repeat","o","true"
"null","<div style=""font-size:60px;"">+</div>","null","html-keyboard-response","231","243154","0.0-3.0-0.114","","fixation","","",""
"579","Set1/114a.jpg","79","image-keyboard-response","232","243734","0.0-3.0-1.114","","","Update","o","true"
"null","<div style=""font-size:60px;"">+</div>","null","html-keyboard-response","233","244236","0.0-3.0-0.115","","fixation","","",""
"726","Set1/156a.jpg","78","image-keyboard-response","234","244964","0.0-3.0-1.115","","","Update","n","true"
"null","<div style=""font-size:60px;"">+</div>","null","html-keyboard-response","235","245467","0.0-3.0-0.116","","fixation","","",""
"641","Set1/056a.jpg","78","image-keyboard-response","236","246108","0.0-3.0-1.116","","","Repeat","n","true"
"null","<div style=""font-size:60px;"">+</div>","null","html-keyboard-response","237","246609","0.0-3.0-0.117","","fixation","","",""
"692","Set1/150a.jpg","78","image-keyboard-response","238","247303","0.0-3.0-1.117","","","Update","n","true"
"null","<div style=""font-size:60px;"">+</div>","null","html-keyboard-response","239","247805","0.0-3.0-0.118","","fixation","","",""
"774","Set1/152a.jpg","79","image-keyboard-response","240","248580","0.0-3.0-1.118","","","Update","o","true"
"null","<div style=""font-size:60px;"">+</div>","null","html-keyboard-response","241","249082","0.0-3.0-0.119","","fixation","","",""
"2350","Set1/157a.jpg","78","image-keyboard-response","242","251434","0.0-3.0-1.119","","","Update","n","true"
"null","<div style=""font-size:60px;"">+</div>","null","html-keyboard-response","243","251935","0.0-3.0-0.120","","fixation","","",""
"2504","Set1/059a.jpg","78","image-keyboard-response","244","254441","0.0-3.0-1.120","","","Repeat","n","true"
"null","<div style=""font-size:60px;"">+</div>","null","html-keyboard-response","245","254943","0.0-3.0-0.121","","fixation","","",""
"3491","Set1/055a.jpg","78","image-keyboard-response","246","258436","0.0-3.0-1.121","","","Repeat","n","true"
"null","<div style=""font-size:60px;"">+</div>","null","html-keyboard-response","247","258938","0.0-3.0-0.122","","fixation","","",""
"1155","Set1/019a.jpg","78","image-keyboard-response","248","260095","0.0-3.0-1.122","","","Set_1_Only","o","false"
"null","<div style=""font-size:60px;"">+</div>","null","html-keyboard-response","249","260597","0.0-3.0-0.123","","fixation","","",""
"1336","Set1/075a.jpg","78","image-keyboard-response","250","261934","0.0-3.0-1.123","","","Repeat","n","true"
"null","<div style=""font-size:60px;"">+</div>","null","html-keyboard-response","251","262435","0.0-3.0-0.124","","fixation","","",""
"781","Set1/048a.jpg","78","image-keyboard-response","252","263217","0.0-3.0-1.124","","","Repeat","n","true"
"null","<div style=""font-size:60px;"">+</div>","null","html-keyboard-response","253","263719","0.0-3.0-0.125","","fixation","","",""
"676","Set1/052a.jpg","78","image-keyboard-response","254","264396","0.0-3.0-1.125","","","Repeat","n","true"
"null","<div style=""font-size:60px;"">+</div>","null","html-keyboard-response","255","264898","0.0-3.0-0.126","","fixation","","",""
"798","Set1/154a.jpg","78","image-keyboard-response","256","265697","0.0-3.0-1.126","","","Update","n","true"
"null","<div style=""font-size:60px;"">+</div>","null","html-keyboard-response","257","266200","0.0-3.0-0.127","","fixation","","",""
"768","Set1/041a.jpg","79","image-keyboard-response","258","266969","0.0-3.0-1.127","","","Repeat","o","true"
"null","<div style=""font-size:60px;"">+</div>","null","html-keyboard-response","259","267470","0.0-3.0-0.128","","fixation","","",""
"582","Set1/010a.jpg","79","image-keyboard-response","260","268055","0.0-3.0-1.128","","","Set_1_Only","o","true"
"null","<div style=""font-size:60px;"">+</div>","null","html-keyboard-response","261","268556","0.0-3.0-0.129","","fixation","","",""
"1346","Set1/008a.jpg","78","image-keyboard-response","262","269903","0.0-3.0-1.129","","","Set_1_Only","o","false"
"null","<div style=""font-size:60px;"">+</div>","null","html-keyboard-response","263","270406","0.0-3.0-0.130","","fixation","","",""
"813","Set1/154a.jpg","79","image-keyboard-response","264","271222","0.0-3.0-1.130","","","Update","o","true"
"null","<div style=""font-size:60px;"">+</div>","null","html-keyboard-response","265","271724","0.0-3.0-0.131","","fixation","","",""
"929","Set1/048a.jpg","78","image-keyboard-response","266","272654","0.0-3.0-1.131","","","Repeat","o","false"
"null","<div style=""font-size:60px;"">+</div>","null","html-keyboard-response","267","273156","0.0-3.0-0.132","","fixation","","",""
"955","Set1/053a.jpg","78","image-keyboard-response","268","274114","0.0-3.0-1.132","","","Repeat","o","false"
"null","<div style=""font-size:60px;"">+</div>","null","html-keyboard-response","269","274615","0.0-3.0-0.133","","fixation","","",""
"896","Set1/138a.jpg","79","image-keyboard-response","270","275513","0.0-3.0-1.133","","","Update","o","true"
"null","<div style=""font-size:60px;"">+</div>","null","html-keyboard-response","271","276015","0.0-3.0-0.134","","fixation","","",""
"799","Set1/014a.jpg","79","image-keyboard-response","272","276815","0.0-3.0-1.134","","","Set_1_Only","o","true"
"null","<div style=""font-size:60px;"">+</div>","null","html-keyboard-response","273","277318","0.0-3.0-0.135","","fixation","","",""
"662","Set1/075a.jpg","79","image-keyboard-response","274","277982","0.0-3.0-1.135","","","Repeat","o","true"
"null","<div style=""font-size:60px;"">+</div>","null","html-keyboard-response","275","278484","0.0-3.0-0.136","","fixation","","",""
"675","Set1/111a.jpg","78","image-keyboard-response","276","279160","0.0-3.0-1.136","","","Update","n","true"
"null","<div style=""font-size:60px;"">+</div>","null","html-keyboard-response","277","279662","0.0-3.0-0.137","","fixation","","",""
"670","Set1/056a.jpg","79","image-keyboard-response","278","280333","0.0-3.0-1.137","","","Repeat","o","true"
"null","<div style=""font-size:60px;"">+</div>","null","html-keyboard-response","279","280835","0.0-3.0-0.138","","fixation","","",""
"772","Set1/003a.jpg","78","image-keyboard-response","280","281607","0.0-3.0-1.138","","","Set_1_Only","n","true"
"null","<div style=""font-size:60px;"">+</div>","null","html-keyboard-response","281","282110","0.0-3.0-0.139","","fixation","","",""
"851","Set1/125a.jpg","79","image-keyboard-response","282","282963","0.0-3.0-1.139","","","Update","o","true"
"null","<div style=""font-size:60px;"">+</div>","null","html-keyboard-response","283","283465","0.0-3.0-0.140","","fixation","","",""
"732","Set1/072a.jpg","78","image-keyboard-response","284","284199","0.0-3.0-1.140","","","Repeat","n","true"
"null","<div style=""font-size:60px;"">+</div>","null","html-keyboard-response","285","284701","0.0-3.0-0.141","","fixation","","",""
"827","Set1/084a.jpg","78","image-keyboard-response","286","285529","0.0-3.0-1.141","","","Repeat","n","true"
"null","<div style=""font-size:60px;"">+</div>","null","html-keyboard-response","287","286032","0.0-3.0-0.142","","fixation","","",""
"665","Set1/156a.jpg","79","image-keyboard-response","288","286698","0.0-3.0-1.142","","","Update","o","true"
"null","<div style=""font-size:60px;"">+</div>","null","html-keyboard-response","289","287201","0.0-3.0-0.143","","fixation","","",""
"727","Set1/003a.jpg","79","image-keyboard-response","290","287930","0.0-3.0-1.143","","","Set_1_Only","o","true"
"null","<div style=""font-size:60px;"">+</div>","null","html-keyboard-response","291","288432","0.0-3.0-0.144","","fixation","","",""
"744","Set1/059a.jpg","79","image-keyboard-response","292","289177","0.0-3.0-1.144","","","Repeat","o","true"
"null","<div style=""font-size:60px;"">+</div>","null","html-keyboard-response","293","289679","0.0-3.0-0.145","","fixation","","",""
"619","Set1/110a.jpg","79","image-keyboard-response","294","290301","0.0-3.0-1.145","","","Update","o","true"
"null","<div style=""font-size:60px;"">+</div>","null","html-keyboard-response","295","290802","0.0-3.0-0.146","","fixation","","",""
"738","Set1/084a.jpg","79","image-keyboard-response","296","291541","0.0-3.0-1.146","","","Repeat","o","true"
"null","<div style=""font-size:60px;"">+</div>","null","html-keyboard-response","297","292042","0.0-3.0-0.147","","fixation","","",""
"702","Set1/072a.jpg","79","image-keyboard-response","298","292746","0.0-3.0-1.147","","","Repeat","o","true"
"null","<div style=""font-size:60px;"">+</div>","null","html-keyboard-response","299","293249","0.0-3.0-0.148","","fixation","","",""
"721","Set1/127a.jpg","78","image-keyboard-response","300","293971","0.0-3.0-1.148","","","Update","n","true"
"null","<div style=""font-size:60px;"">+</div>","null","html-keyboard-response","301","294473","0.0-3.0-0.149","","fixation","","",""
"732","Set1/095a.jpg","79","image-keyboard-response","302","295206","0.0-3.0-1.149","","","Repeat","o","true"
"null","<div style=""font-size:60px;"">+</div>","null","html-keyboard-response","303","295709","0.0-3.0-0.150","","fixation","","",""
"745","Set1/013a.jpg","79","image-keyboard-response","304","296457","0.0-3.0-1.150","","","Set_1_Only","o","true"
"null","<div style=""font-size:60px;"">+</div>","null","html-keyboard-response","305","296959","0.0-3.0-0.151","","fixation","","",""
"528","Set1/067a.jpg","79","image-keyboard-response","306","297488","0.0-3.0-1.151","","","Repeat","o","true"
"null","<div style=""font-size:60px;"">+</div>","null","html-keyboard-response","307","297990","0.0-3.0-0.152","","fixation","","",""
"1031","Set1/157a.jpg","79","image-keyboard-response","308","299022","0.0-3.0-1.152","","","Update","o","true"
"null","<div style=""font-size:60px;"">+</div>","null","html-keyboard-response","309","299523","0.0-3.0-0.153","","fixation","","",""
"915","Set1/127a.jpg","78","image-keyboard-response","310","300440","0.0-3.0-1.153","","","Update","o","false"
"null","<div style=""font-size:60px;"">+</div>","null","html-keyboard-response","311","300941","0.0-3.0-0.154","","fixation","","",""
"883","Set1/052a.jpg","79","image-keyboard-response","312","301826","0.0-3.0-1.154","","","Repeat","o","true"
"null","<div style=""font-size:60px;"">+</div>","null","html-keyboard-response","313","302328","0.0-3.0-0.155","","fixation","","",""
"1885","Set1/055a.jpg","79","image-keyboard-response","314","304214","0.0-3.0-1.155","","","Repeat","o","true"
"null","<div style=""font-size:60px;"">+</div>","null","html-keyboard-response","315","304716","0.0-3.0-0.156","","fixation","","",""
"834","Set1/111a.jpg","79","image-keyboard-response","316","305551","0.0-3.0-1.156","","","Update","o","true"
"null","<div style=""font-size:60px;"">+</div>","null","html-keyboard-response","317","306053","0.0-3.0-0.157","","fixation","","",""
"570","Set1/150a.jpg","79","image-keyboard-response","318","306624","0.0-3.0-1.157","","","Update","o","true"
"null","<div style=""font-size:60px;"">+</div>","null","html-keyboard-response","319","307126","0.0-3.0-0.158","","fixation","","",""
"579","Set1/100a.jpg","79","image-keyboard-response","320","307708","0.0-3.0-1.158","","","Update","o","true"
"null","<div style=""font-size:60px;"">+</div>","null","html-keyboard-response","321","308210","0.0-3.0-0.159","","fixation","","",""
"1354","Set1/096a.jpg","78","image-keyboard-response","322","309565","0.0-3.0-1.159","","","Repeat","o","false"
"null","<div style=""font-size:60px;"">+</div>","null","html-keyboard-response","323","310067","0.0-3.0-0.160","","fixation","","",""
"1378","Set1/159a.jpg","78","image-keyboard-response","324","311446","0.0-3.0-1.160","","","Update","n","true"
"null","<div style=""font-size:60px;"">+</div>","null","html-keyboard-response","325","311948","0.0-3.0-0.161","","fixation","","",""
"1073","Set1/074a.jpg","78","image-keyboard-response","326","313023","0.0-3.0-1.161","","","Repeat","n","true"
"null","<div style=""font-size:60px;"">+</div>","null","html-keyboard-response","327","313526","0.0-3.0-0.162","","fixation","","",""
"838","Set1/060a.jpg","78","image-keyboard-response","328","314366","0.0-3.0-1.162","","","Repeat","n","true"
"null","<div style=""font-size:60px;"">+</div>","null","html-keyboard-response","329","314867","0.0-3.0-0.163","","fixation","","",""
"658","Set1/062a.jpg","78","image-keyboard-response","330","315527","0.0-3.0-1.163","","","Repeat","n","true"
"null","<div style=""font-size:60px;"">+</div>","null","html-keyboard-response","331","316029","0.0-3.0-0.164","","fixation","","",""
"577","Set1/155a.jpg","78","image-keyboard-response","332","316608","0.0-3.0-1.164","","","Update","n","true"
"null","<div style=""font-size:60px;"">+</div>","null","html-keyboard-response","333","317111","0.0-3.0-0.165","","fixation","","",""
"612","Set1/117a.jpg","78","image-keyboard-response","334","317724","0.0-3.0-1.165","","","Update","n","true"
"null","<div style=""font-size:60px;"">+</div>","null","html-keyboard-response","335","318227","0.0-3.0-0.166","","fixation","","",""
"533","Set1/004a.jpg","78","image-keyboard-response","336","318762","0.0-3.0-1.166","","","Set_1_Only","n","true"
"null","<div style=""font-size:60px;"">+</div>","null","html-keyboard-response","337","319265","0.0-3.0-0.167","","fixation","","",""
"601","Set1/097a.jpg","78","image-keyboard-response","338","319867","0.0-3.0-1.167","","","Update","n","true"
"null","<div style=""font-size:60px;"">+</div>","null","html-keyboard-response","339","320369","0.0-3.0-0.168","","fixation","","",""
"505","Set1/130a.jpg","78","image-keyboard-response","340","320876","0.0-3.0-1.168","","","Update","n","true"
"null","<div style=""font-size:60px;"">+</div>","null","html-keyboard-response","341","321378","0.0-3.0-0.169","","fixation","","",""
"650","Set1/068a.jpg","78","image-keyboard-response","342","322030","0.0-3.0-1.169","","","Repeat","n","true"
"null","<div style=""font-size:60px;"">+</div>","null","html-keyboard-response","343","322531","0.0-3.0-0.170","","fixation","","",""
"719","Set1/137a.jpg","78","image-keyboard-response","344","323252","0.0-3.0-1.170","","","Update","n","true"
"null","<div style=""font-size:60px;"">+</div>","null","html-keyboard-response","345","323754","0.0-3.0-0.171","","fixation","","",""
"516","Set1/097a.jpg","78","image-keyboard-response","346","324272","0.0-3.0-1.171","","","Update","o","false"
"null","<div style=""font-size:60px;"">+</div>","null","html-keyboard-response","347","324774","0.0-3.0-0.172","","fixation","","",""
"899","Set1/147a.jpg","78","image-keyboard-response","348","325675","0.0-3.0-1.172","","","Update","n","true"
"null","<div style=""font-size:60px;"">+</div>","null","html-keyboard-response","349","326177","0.0-3.0-0.173","","fixation","","",""
"663","Set1/155a.jpg","79","image-keyboard-response","350","326841","0.0-3.0-1.173","","","Update","o","true"
"null","<div style=""font-size:60px;"">+</div>","null","html-keyboard-response","351","327343","0.0-3.0-0.174","","fixation","","",""
"883","Set1/002a.jpg","78","image-keyboard-response","352","328227","0.0-3.0-1.174","","","Set_1_Only","n","true"
"null","<div style=""font-size:60px;"">+</div>","null","html-keyboard-response","353","328729","0.0-3.0-0.175","","fixation","","",""
"1224","Set1/033a.jpg","78","image-keyboard-response","354","329954","0.0-3.0-1.175","","","Repeat","n","true"
"null","<div style=""font-size:60px;"">+</div>","null","html-keyboard-response","355","330455","0.0-3.0-0.176","","fixation","","",""
"946","Set1/102a.jpg","78","image-keyboard-response","356","331402","0.0-3.0-1.176","","","Update","n","true"
"null","<div style=""font-size:60px;"">+</div>","null","html-keyboard-response","357","331904","0.0-3.0-0.177","","fixation","","",""
"756","Set1/057a.jpg","78","image-keyboard-response","358","332661","0.0-3.0-1.177","","","Repeat","n","true"
"null","<div style=""font-size:60px;"">+</div>","null","html-keyboard-response","359","333163","0.0-3.0-0.178","","fixation","","",""
"669","Set1/147a.jpg","79","image-keyboard-response","360","333833","0.0-3.0-1.178","","","Update","o","true"
"null","<div style=""font-size:60px;"">+</div>","null","html-keyboard-response","361","334334","0.0-3.0-0.179","","fixation","","",""
"1173","Set1/057a.jpg","79","image-keyboard-response","362","335508","0.0-3.0-1.179","","","Repeat","o","true"
"null","<div style=""font-size:60px;"">+</div>","null","html-keyboard-response","363","336010","0.0-3.0-0.180","","fixation","","",""
"686","Set1/131a.jpg","78","image-keyboard-response","364","336697","0.0-3.0-1.180","","","Update","n","true"
"null","<div style=""font-size:60px;"">+</div>","null","html-keyboard-response","365","337199","0.0-3.0-0.181","","fixation","","",""
"698","Set1/032a.jpg","78","image-keyboard-response","366","337898","0.0-3.0-1.181","","","Set_1_Only","n","true"
"null","<div style=""font-size:60px;"">+</div>","null","html-keyboard-response","367","338400","0.0-3.0-0.182","","fixation","","",""
"650","Set1/065a.jpg","78","image-keyboard-response","368","339052","0.0-3.0-1.182","","","Repeat","n","true"
"null","<div style=""font-size:60px;"">+</div>","null","html-keyboard-response","369","339554","0.0-3.0-0.183","","fixation","","",""
"645","Set1/149a.jpg","78","image-keyboard-response","370","340200","0.0-3.0-1.183","","","Update","n","true"
"null","<div style=""font-size:60px;"">+</div>","null","html-keyboard-response","371","340702","0.0-3.0-0.184","","fixation","","",""
"787","Set1/065a.jpg","79","image-keyboard-response","372","341490","0.0-3.0-1.184","","","Repeat","o","true"
"null","<div style=""font-size:60px;"">+</div>","null","html-keyboard-response","373","341991","0.0-3.0-0.185","","fixation","","",""
"1089","Set1/089a.jpg","78","image-keyboard-response","374","343082","0.0-3.0-1.185","","","Repeat","n","true"
"null","<div style=""font-size:60px;"">+</div>","null","html-keyboard-response","375","343585","0.0-3.0-0.186","","fixation","","",""
"1845","Set1/144a.jpg","78","image-keyboard-response","376","345431","0.0-3.0-1.186","","","Update","n","true"
"null","<div style=""font-size:60px;"">+</div>","null","html-keyboard-response","377","345934","0.0-3.0-0.187","","fixation","","",""
"934","Set1/069a.jpg","78","image-keyboard-response","378","346869","0.0-3.0-1.187","","","Repeat","n","true"
"null","<div style=""font-size:60px;"">+</div>","null","html-keyboard-response","379","347370","0.0-3.0-0.188","","fixation","","",""
"1004","Set1/129a.jpg","78","image-keyboard-response","380","348376","0.0-3.0-1.188","","","Update","n","true"
"null","<div style=""font-size:60px;"">+</div>","null","html-keyboard-response","381","348879","0.0-3.0-0.189","","fixation","","",""
"753","Set1/032a.jpg","79","image-keyboard-response","382","349633","0.0-3.0-1.189","","","Set_1_Only","o","true"
"null","<div style=""font-size:60px;"">+</div>","null","html-keyboard-response","383","350136","0.0-3.0-0.190","","fixation","","",""
"772","Set1/024a.jpg","78","image-keyboard-response","384","350908","0.0-3.0-1.190","","","Set_1_Only","n","true"
"null","<div style=""font-size:60px;"">+</div>","null","html-keyboard-response","385","351411","0.0-3.0-0.191","","fixation","","",""
"629","Set1/078a.jpg","78","image-keyboard-response","386","352041","0.0-3.0-1.191","","","Repeat","n","true"
"null","<div style=""font-size:60px;"">+</div>","null","html-keyboard-response","387","352544","0.0-3.0-0.192","","fixation","","",""
"719","Set1/103a.jpg","78","image-keyboard-response","388","353264","0.0-3.0-1.192","","","Update","n","true"
"null","<div style=""font-size:60px;"">+</div>","null","html-keyboard-response","389","353766","0.0-3.0-0.193","","fixation","","",""
"594","Set1/130a.jpg","79","image-keyboard-response","390","354362","0.0-3.0-1.193","","","Update","o","true"
"null","<div style=""font-size:60px;"">+</div>","null","html-keyboard-response","391","354864","0.0-3.0-0.194","","fixation","","",""
"910","Set1/022a.jpg","78","image-keyboard-response","392","355775","0.0-3.0-1.194","","","Set_1_Only","n","true"
"null","<div style=""font-size:60px;"">+</div>","null","html-keyboard-response","393","356278","0.0-3.0-0.195","","fixation","","",""
"3298","Set1/124a.jpg","78","image-keyboard-response","394","359577","0.0-3.0-1.195","","","Update","n","true"
"null","<div style=""font-size:60px;"">+</div>","null","html-keyboard-response","395","360079","0.0-3.0-0.196","","fixation","","",""
"1216","Set1/068a.jpg","79","image-keyboard-response","396","361298","0.0-3.0-1.196","","","Repeat","o","true"
"null","<div style=""font-size:60px;"">+</div>","null","html-keyboard-response","397","361801","0.0-3.0-0.197","","fixation","","",""
"736","Set1/078a.jpg","79","image-keyboard-response","398","362538","0.0-3.0-1.197","","","Repeat","o","true"
"null","<div style=""font-size:60px;"">+</div>","null","html-keyboard-response","399","363040","0.0-3.0-0.198","","fixation","","",""
"993","Set1/137a.jpg","78","image-keyboard-response","400","364036","0.0-3.0-1.198","","","Update","o","false"
"null","<div style=""font-size:60px;"">+</div>","null","html-keyboard-response","401","364537","0.0-3.0-0.199","","fixation","","",""
"896","Set1/118a.jpg","78","image-keyboard-response","402","365434","0.0-3.0-1.199","","","Update","n","true"
"null","<div style=""font-size:60px;"">+</div>","null","html-keyboard-response","403","365938","0.0-3.0-0.200","","fixation","","",""
"782","Set1/149a.jpg","79","image-keyboard-response","404","366721","0.0-3.0-1.200","","","Update","o","true"
"null","<div style=""font-size:60px;"">+</div>","null","html-keyboard-response","405","367223","0.0-3.0-0.201","","fixation","","",""
"722","Set1/002a.jpg","79","image-keyboard-response","406","367946","0.0-3.0-1.201","","","Set_1_Only","o","true"
"null","<div style=""font-size:60px;"">+</div>","null","html-keyboard-response","407","368448","0.0-3.0-0.202","","fixation","","",""
"905","Set1/103a.jpg","79","image-keyboard-response","408","369355","0.0-3.0-1.202","","","Update","o","true"
"null","<div style=""font-size:60px;"">+</div>","null","html-keyboard-response","409","369858","0.0-3.0-0.203","","fixation","","",""
"853","Set1/012a.jpg","78","image-keyboard-response","410","370712","0.0-3.0-1.203","","","Set_1_Only","n","true"
"null","<div style=""font-size:60px;"">+</div>","null","html-keyboard-response","411","371214","0.0-3.0-0.204","","fixation","","",""
"920","Set1/104a.jpg","78","image-keyboard-response","412","372135","0.0-3.0-1.204","","","Update","n","true"
"null","<div style=""font-size:60px;"">+</div>","null","html-keyboard-response","413","372637","0.0-3.0-0.205","","fixation","","",""
"645","Set1/080a.jpg","78","image-keyboard-response","414","373285","0.0-3.0-1.205","","","Repeat","n","true"
"null","<div style=""font-size:60px;"">+</div>","null","html-keyboard-response","415","373787","0.0-3.0-0.206","","fixation","","",""
"876","Set1/040a.jpg","78","image-keyboard-response","416","374665","0.0-3.0-1.206","","","Repeat","n","true"
"null","<div style=""font-size:60px;"">+</div>","null","html-keyboard-response","417","375168","0.0-3.0-0.207","","fixation","","",""
"856","Set1/145a.jpg","78","image-keyboard-response","418","376025","0.0-3.0-1.207","","","Update","n","true"
"null","<div style=""font-size:60px;"">+</div>","null","html-keyboard-response","419","376527","0.0-3.0-0.208","","fixation","","",""
"775","Set1/004a.jpg","79","image-keyboard-response","420","377304","0.0-3.0-1.208","","","Set_1_Only","o","true"
"null","<div style=""font-size:60px;"">+</div>","null","html-keyboard-response","421","377806","0.0-3.0-0.209","","fixation","","",""
"505","Set1/073a.jpg","79","image-keyboard-response","422","378312","0.0-3.0-1.209","","","Repeat","n","false"
"null","<div style=""font-size:60px;"">+</div>","null","html-keyboard-response","423","378814","0.0-3.0-0.210","","fixation","","",""
"667","Set1/144a.jpg","79","image-keyboard-response","424","379482","0.0-3.0-1.210","","","Update","o","true"
"null","<div style=""font-size:60px;"">+</div>","null","html-keyboard-response","425","379984","0.0-3.0-0.211","","fixation","","",""
"877","Set1/145a.jpg","79","image-keyboard-response","426","380862","0.0-3.0-1.211","","","Update","o","true"
"null","<div style=""font-size:60px;"">+</div>","null","html-keyboard-response","427","381365","0.0-3.0-0.212","","fixation","","",""
"890","Set1/124a.jpg","78","image-keyboard-response","428","382257","0.0-3.0-1.212","","","Update","o","false"
"null","<div style=""font-size:60px;"">+</div>","null","html-keyboard-response","429","382759","0.0-3.0-0.213","","fixation","","",""
"695","Set1/040a.jpg","79","image-keyboard-response","430","383456","0.0-3.0-1.213","","","Repeat","o","true"
"null","<div style=""font-size:60px;"">+</div>","null","html-keyboard-response","431","383957","0.0-3.0-0.214","","fixation","","",""
"603","Set1/069a.jpg","79","image-keyboard-response","432","384561","0.0-3.0-1.214","","","Repeat","o","true"
"null","<div style=""font-size:60px;"">+</div>","null","html-keyboard-response","433","385064","0.0-3.0-0.215","","fixation","","",""
"1216","Set1/143a.jpg","78","image-keyboard-response","434","386281","0.0-3.0-1.215","","","Update","n","true"
"null","<div style=""font-size:60px;"">+</div>","null","html-keyboard-response","435","386784","0.0-3.0-0.216","","fixation","","",""
"828","Set1/024a.jpg","79","image-keyboard-response","436","387614","0.0-3.0-1.216","","","Set_1_Only","o","true"
"null","<div style=""font-size:60px;"">+</div>","null","html-keyboard-response","437","388115","0.0-3.0-0.217","","fixation","","",""
"759","Set1/131a.jpg","79","image-keyboard-response","438","388876","0.0-3.0-1.217","","","Update","o","true"
"null","<div style=""font-size:60px;"">+</div>","null","html-keyboard-response","439","389379","0.0-3.0-0.218","","fixation","","",""
"1397","Set1/094a.jpg","78","image-keyboard-response","440","390777","0.0-3.0-1.218","","","Repeat","n","true"
"null","<div style=""font-size:60px;"">+</div>","null","html-keyboard-response","441","391279","0.0-3.0-0.219","","fixation","","",""
"1678","Set1/104a.jpg","79","image-keyboard-response","442","392960","0.0-3.0-1.219","","","Update","o","true"
"null","<div style=""font-size:60px;"">+</div>","null","html-keyboard-response","443","393462","0.0-3.0-0.220","","fixation","","",""
"834","Set1/080a.jpg","79","image-keyboard-response","444","394298","0.0-3.0-1.220","","","Repeat","o","true"
"null","<div style=""font-size:60px;"">+</div>","null","html-keyboard-response","445","394800","0.0-3.0-0.221","","fixation","","",""
"531","Set1/060a.jpg","79","image-keyboard-response","446","395333","0.0-3.0-1.221","","","Repeat","o","true"
"null","<div style=""font-size:60px;"">+</div>","null","html-keyboard-response","447","395836","0.0-3.0-0.222","","fixation","","",""
"966","Set1/129a.jpg","78","image-keyboard-response","448","396805","0.0-3.0-1.222","","","Update","o","false"
"null","<div style=""font-size:60px;"">+</div>","null","html-keyboard-response","449","397307","0.0-3.0-0.223","","fixation","","",""
"855","Set1/089a.jpg","79","image-keyboard-response","450","398163","0.0-3.0-1.223","","","Repeat","o","true"
"null","<div style=""font-size:60px;"">+</div>","null","html-keyboard-response","451","398664","0.0-3.0-0.224","","fixation","","",""
"670","Set1/159a.jpg","79","image-keyboard-response","452","399336","0.0-3.0-1.224","","","Update","o","true"
"null","<div style=""font-size:60px;"">+</div>","null","html-keyboard-response","453","399837","0.0-3.0-0.225","","fixation","","",""
"897","Set1/135a.jpg","78","image-keyboard-response","454","400735","0.0-3.0-1.225","","","Update","n","true"
"null","<div style=""font-size:60px;"">+</div>","null","html-keyboard-response","455","401236","0.0-3.0-0.226","","fixation","","",""
"1471","Set1/116a.jpg","78","image-keyboard-response","456","402708","0.0-3.0-1.226","","","Update","n","true"
"null","<div style=""font-size:60px;"">+</div>","null","html-keyboard-response","457","403210","0.0-3.0-0.227","","fixation","","",""
"704","Set1/102a.jpg","79","image-keyboard-response","458","403916","0.0-3.0-1.227","","","Update","o","true"
"null","<div style=""font-size:60px;"">+</div>","null","html-keyboard-response","459","404419","0.0-3.0-0.228","","fixation","","",""
"606","Set1/022a.jpg","79","image-keyboard-response","460","405026","0.0-3.0-1.228","","","Set_1_Only","o","true"
"null","<div style=""font-size:60px;"">+</div>","null","html-keyboard-response","461","405528","0.0-3.0-0.229","","fixation","","",""
"584","Set1/094a.jpg","79","image-keyboard-response","462","406115","0.0-3.0-1.229","","","Repeat","o","true"
"null","<div style=""font-size:60px;"">+</div>","null","html-keyboard-response","463","406617","0.0-3.0-0.230","","fixation","","",""
"757","Set1/118a.jpg","78","image-keyboard-response","464","407376","0.0-3.0-1.230","","","Update","o","false"
"null","<div style=""font-size:60px;"">+</div>","null","html-keyboard-response","465","407878","0.0-3.0-0.231","","fixation","","",""
"824","Set1/033a.jpg","79","image-keyboard-response","466","408704","0.0-3.0-1.231","","","Repeat","o","true"
"null","<div style=""font-size:60px;"">+</div>","null","html-keyboard-response","467","409206","0.0-3.0-0.232","","fixation","","",""
"689","Set1/117a.jpg","79","image-keyboard-response","468","409896","0.0-3.0-1.232","","","Update","o","true"
"null","<div style=""font-size:60px;"">+</div>","null","html-keyboard-response","469","410398","0.0-3.0-0.233","","fixation","","",""
"995","Set1/135a.jpg","79","image-keyboard-response","470","411394","0.0-3.0-1.233","","","Update","o","true"
"null","<div style=""font-size:60px;"">+</div>","null","html-keyboard-response","471","411896","0.0-3.0-0.234","","fixation","","",""
"697","Set1/116a.jpg","79","image-keyboard-response","472","412595","0.0-3.0-1.234","","","Update","o","true"
"null","<div style=""font-size:60px;"">+</div>","null","html-keyboard-response","473","413098","0.0-3.0-0.235","","fixation","","",""
"753","Set1/143a.jpg","79","image-keyboard-response","474","413852","0.0-3.0-1.235","","","Update","o","true"
"null","<div style=""font-size:60px;"">+</div>","null","html-keyboard-response","475","414353","0.0-3.0-0.236","","fixation","","",""
"1281","Set1/074a.jpg","78","image-keyboard-response","476","415636","0.0-3.0-1.236","","","Repeat","o","false"
"null","<div style=""font-size:60px;"">+</div>","null","html-keyboard-response","477","416139","0.0-3.0-0.237","","fixation","","",""
"807","Set1/012a.jpg","79","image-keyboard-response","478","416947","0.0-3.0-1.237","","","Set_1_Only","o","true"
"null","<div style=""font-size:60px;"">+</div>","null","html-keyboard-response","479","417450","0.0-3.0-0.238","","fixation","","",""
"618","Set1/062a.jpg","79","image-keyboard-response","480","418069","0.0-3.0-1.238","","","Repeat","o","true"
"null","<div style=""font-size:60px;"">+</div>","null","html-keyboard-response","481","418570","0.0-3.0-0.239","","fixation","","",""
"759","Set1/073a.jpg","79","image-keyboard-response","482","419331","0.0-3.0-1.239","","","Repeat","o","true"
"null","<div style=""font-size:60px;"">+</div>","null","html-keyboard-response","483","419834","0.0-3.0-0.240","","fixation","","",""
"821","Set1/029a.jpg","78","image-keyboard-response","484","420656","0.0-3.0-1.240","","","Set_1_Only","n","true"
"null","<div style=""font-size:60px;"">+</div>","null","html-keyboard-response","485","421158","0.0-3.0-0.241","","fixation","","",""
"894","Set1/098a.jpg","78","image-keyboard-response","486","422053","0.0-3.0-1.241","","","Update","n","true"
"null","<div style=""font-size:60px;"">+</div>","null","html-keyboard-response","487","422556","0.0-3.0-0.242","","fixation","","",""
"775","Set1/086a.jpg","78","image-keyboard-response","488","423332","0.0-3.0-1.242","","","Repeat","n","true"
"null","<div style=""font-size:60px;"">+</div>","null","html-keyboard-response","489","423835","0.0-3.0-0.243","","fixation","","",""
"663","Set1/070a.jpg","78","image-keyboard-response","490","424500","0.0-3.0-1.243","","","Repeat","n","true"
"null","<div style=""font-size:60px;"">+</div>","null","html-keyboard-response","491","425003","0.0-3.0-0.244","","fixation","","",""
"961","Set1/091a.jpg","78","image-keyboard-response","492","425965","0.0-3.0-1.244","","","Repeat","n","true"
"null","<div style=""font-size:60px;"">+</div>","null","html-keyboard-response","493","426468","0.0-3.0-0.245","","fixation","","",""
"1083","Set1/043a.jpg","78","image-keyboard-response","494","427552","0.0-3.0-1.245","","","Repeat","n","true"
"null","<div style=""font-size:60px;"">+</div>","null","html-keyboard-response","495","428054","0.0-3.0-0.246","","fixation","","",""
"780","Set1/083a.jpg","78","image-keyboard-response","496","428836","0.0-3.0-1.246","","","Repeat","n","true"
"null","<div style=""font-size:60px;"">+</div>","null","html-keyboard-response","497","429339","0.0-3.0-0.247","","fixation","","",""
"619","Set1/011a.jpg","78","image-keyboard-response","498","429960","0.0-3.0-1.247","","","Set_1_Only","n","true"
"null","<div style=""font-size:60px;"">+</div>","null","html-keyboard-response","499","430461","0.0-3.0-0.248","","fixation","","",""
"1003","Set1/142a.jpg","78","image-keyboard-response","500","431465","0.0-3.0-1.248","","","Update","n","true"
"null","<div style=""font-size:60px;"">+</div>","null","html-keyboard-response","501","431967","0.0-3.0-0.249","","fixation","","",""
"665","Set1/061a.jpg","78","image-keyboard-response","502","432633","0.0-3.0-1.249","","","Repeat","n","true"
"null","<div style=""font-size:60px;"">+</div>","null","html-keyboard-response","503","433136","0.0-3.0-0.250","","fixation","","",""
"603","Set1/007a.jpg","78","image-keyboard-response","504","433741","0.0-3.0-1.250","","","Set_1_Only","n","true"
"null","<div style=""font-size:60px;"">+</div>","null","html-keyboard-response","505","434243","0.0-3.0-0.251","","fixation","","",""
"617","Set1/039a.jpg","78","image-keyboard-response","506","434862","0.0-3.0-1.251","","","Repeat","n","true"
"null","<div style=""font-size:60px;"">+</div>","null","html-keyboard-response","507","435365","0.0-3.0-0.252","","fixation","","",""
"570","Set1/023a.jpg","78","image-keyboard-response","508","435936","0.0-3.0-1.252","","","Set_1_Only","n","true"
"null","<div style=""font-size:60px;"">+</div>","null","html-keyboard-response","509","436437","0.0-3.0-0.253","","fixation","","",""
"480","Set1/001a.jpg","78","image-keyboard-response","510","436918","0.0-3.0-1.253","","","Set_1_Only","n","true"
"null","<div style=""font-size:60px;"">+</div>","null","html-keyboard-response","511","437420","0.0-3.0-0.254","","fixation","","",""
"753","Set1/038a.jpg","78","image-keyboard-response","512","438174","0.0-3.0-1.254","","","Repeat","n","true"
"null","<div style=""font-size:60px;"">+</div>","null","html-keyboard-response","513","438676","0.0-3.0-0.255","","fixation","","",""
"503","Set1/126a.jpg","78","image-keyboard-response","514","439180","0.0-3.0-1.255","","","Update","n","true"
"null","<div style=""font-size:60px;"">+</div>","null","html-keyboard-response","515","439683","0.0-3.0-0.256","","fixation","","",""
"764","Set1/021a.jpg","78","image-keyboard-response","516","440450","0.0-3.0-1.256","","","Set_1_Only","n","true"
"null","<div style=""font-size:60px;"">+</div>","null","html-keyboard-response","517","440953","0.0-3.0-0.257","","fixation","","",""
"603","Set1/109a.jpg","78","image-keyboard-response","518","441557","0.0-3.0-1.257","","","Update","n","true"
"null","<div style=""font-size:60px;"">+</div>","null","html-keyboard-response","519","442058","0.0-3.0-0.258","","fixation","","",""
"649","Set1/099a.jpg","78","image-keyboard-response","520","442708","0.0-3.0-1.258","","","Update","n","true"
"null","<div style=""font-size:60px;"">+</div>","null","html-keyboard-response","521","443211","0.0-3.0-0.259","","fixation","","",""
"1155","Set1/122a.jpg","78","image-keyboard-response","522","444368","0.0-3.0-1.259","","","Update","n","true"
"null","<div style=""font-size:60px;"">+</div>","null","html-keyboard-response","523","444870","0.0-3.0-0.260","","fixation","","",""
"1740","Set1/023a.jpg","79","image-keyboard-response","524","446613","0.0-3.0-1.260","","","Set_1_Only","o","true"
"null","<div style=""font-size:60px;"">+</div>","null","html-keyboard-response","525","447114","0.0-3.0-0.261","","fixation","","",""
"842","Set1/017a.jpg","78","image-keyboard-response","526","447957","0.0-3.0-1.261","","","Set_1_Only","n","true"
"null","<div style=""font-size:60px;"">+</div>","null","html-keyboard-response","527","448459","0.0-3.0-0.262","","fixation","","",""
"796","Set1/132a.jpg","78","image-keyboard-response","528","449257","0.0-3.0-1.262","","","Update","n","true"
"null","<div style=""font-size:60px;"">+</div>","null","html-keyboard-response","529","449759","0.0-3.0-0.263","","fixation","","",""
"572","Set1/042a.jpg","78","image-keyboard-response","530","450333","0.0-3.0-1.263","","","Repeat","n","true"
"null","<div style=""font-size:60px;"">+</div>","null","html-keyboard-response","531","450834","0.0-3.0-0.264","","fixation","","",""
"589","Set1/087a.jpg","78","image-keyboard-response","532","451425","0.0-3.0-1.264","","","Repeat","n","true"
"null","<div style=""font-size:60px;"">+</div>","null","html-keyboard-response","533","451927","0.0-3.0-0.265","","fixation","","",""
"925","Set1/101a.jpg","78","image-keyboard-response","534","452853","0.0-3.0-1.265","","","Update","n","true"
"null","<div style=""font-size:60px;"">+</div>","null","html-keyboard-response","535","453354","0.0-3.0-0.266","","fixation","","",""
"575","Set1/066a.jpg","78","image-keyboard-response","536","453930","0.0-3.0-1.266","","","Repeat","n","true"
"null","<div style=""font-size:60px;"">+</div>","null","html-keyboard-response","537","454432","0.0-3.0-0.267","","fixation","","",""
"439","Set1/091a.jpg","78","image-keyboard-response","538","454872","0.0-3.0-1.267","","","Repeat","o","false"
"null","<div style=""font-size:60px;"">+</div>","null","html-keyboard-response","539","455374","0.0-3.0-0.268","","fixation","","",""
"771","Set1/077a.jpg","78","image-keyboard-response","540","456146","0.0-3.0-1.268","","","Repeat","n","true"
"null","<div style=""font-size:60px;"">+</div>","null","html-keyboard-response","541","456649","0.0-3.0-0.269","","fixation","","",""
"571","Set1/042a.jpg","78","image-keyboard-response","542","457222","0.0-3.0-1.269","","","Repeat","o","false"
"null","<div style=""font-size:60px;"">+</div>","null","html-keyboard-response","543","457724","0.0-3.0-0.270","","fixation","","",""
"1061","Set1/018a.jpg","78","image-keyboard-response","544","458786","0.0-3.0-1.270","","","Set_1_Only","n","true"
"null","<div style=""font-size:60px;"">+</div>","null","html-keyboard-response","545","459288","0.0-3.0-0.271","","fixation","","",""
"598","Set1/058a.jpg","78","image-keyboard-response","546","459888","0.0-3.0-1.271","","","Repeat","n","true"
"null","<div style=""font-size:60px;"">+</div>","null","html-keyboard-response","547","460390","0.0-3.0-0.272","","fixation","","",""
"815","Set1/132a.jpg","79","image-keyboard-response","548","461207","0.0-3.0-1.272","","","Update","o","true"
"null","<div style=""font-size:60px;"">+</div>","null","html-keyboard-response","549","461708","0.0-3.0-0.273","","fixation","","",""
"612","Set1/038a.jpg","79","image-keyboard-response","550","462322","0.0-3.0-1.273","","","Repeat","o","true"
"null","<div style=""font-size:60px;"">+</div>","null","html-keyboard-response","551","462824","0.0-3.0-0.274","","fixation","","",""
"533","Set1/066a.jpg","79","image-keyboard-response","552","463359","0.0-3.0-1.274","","","Repeat","o","true"
"null","<div style=""font-size:60px;"">+</div>","null","html-keyboard-response","553","463861","0.0-3.0-0.275","","fixation","","",""
"568","Set1/099a.jpg","79","image-keyboard-response","554","464432","0.0-3.0-1.275","","","Update","o","true"
"null","<div style=""font-size:60px;"">+</div>","null","html-keyboard-response","555","464934","0.0-3.0-0.276","","fixation","","",""
"600","Set1/126a.jpg","79","image-keyboard-response","556","465536","0.0-3.0-1.276","","","Update","o","true"
"null","<div style=""font-size:60px;"">+</div>","null","html-keyboard-response","557","466038","0.0-3.0-0.277","","fixation","","",""
"600","Set1/009a.jpg","79","image-keyboard-response","558","466639","0.0-3.0-1.277","","","Set_1_Only","n","false"
"null","<div style=""font-size:60px;"">+</div>","null","html-keyboard-response","559","467140","0.0-3.0-0.278","","fixation","","",""
"699","Set1/046a.jpg","78","image-keyboard-response","560","467840","0.0-3.0-1.278","","","Repeat","n","true"
"null","<div style=""font-size:60px;"">+</div>","null","html-keyboard-response","561","468343","0.0-3.0-0.279","","fixation","","",""
"732","Set1/039a.jpg","79","image-keyboard-response","562","469076","0.0-3.0-1.279","","","Repeat","o","true"
"null","<div style=""font-size:60px;"">+</div>","null","html-keyboard-response","563","469578","0.0-3.0-0.280","","fixation","","",""
"827","Set1/001a.jpg","79","image-keyboard-response","564","470406","0.0-3.0-1.280","","","Set_1_Only","o","true"
"null","<div style=""font-size:60px;"">+</div>","null","html-keyboard-response","565","470908","0.0-3.0-0.281","","fixation","","",""
"600","Set1/122a.jpg","79","image-keyboard-response","566","471509","0.0-3.0-1.281","","","Update","o","true"
"null","<div style=""font-size:60px;"">+</div>","null","html-keyboard-response","567","472012","0.0-3.0-0.282","","fixation","","",""
"2133","Set1/086a.jpg","78","image-keyboard-response","568","474146","0.0-3.0-1.282","","","Repeat","o","false"
"null","<div style=""font-size:60px;"">+</div>","null","html-keyboard-response","569","474648","0.0-3.0-0.283","","fixation","","",""
"875","Set1/046a.jpg","79","image-keyboard-response","570","475524","0.0-3.0-1.283","","","Repeat","o","true"
"null","<div style=""font-size:60px;"">+</div>","null","html-keyboard-response","571","476026","0.0-3.0-0.284","","fixation","","",""
"695","Set1/043a.jpg","79","image-keyboard-response","572","476721","0.0-3.0-1.284","","","Repeat","o","true"
"null","<div style=""font-size:60px;"">+</div>","null","html-keyboard-response","573","477224","0.0-3.0-0.285","","fixation","","",""
"1012","Set1/016a.jpg","78","image-keyboard-response","574","478237","0.0-3.0-1.285","","","Set_1_Only","n","true"
"null","<div style=""font-size:60px;"">+</div>","null","html-keyboard-response","575","478739","0.0-3.0-0.286","","fixation","","",""
"967","Set1/090a.jpg","78","image-keyboard-response","576","479707","0.0-3.0-1.286","","","Repeat","n","true"
"null","<div style=""font-size:60px;"">+</div>","null","html-keyboard-response","577","480210","0.0-3.0-0.287","","fixation","","",""
"1603","Set1/141a.jpg","79","image-keyboard-response","578","481814","0.0-3.0-1.287","","","Update","n","false"
"null","<div style=""font-size:60px;"">+</div>","null","html-keyboard-response","579","482316","0.0-3.0-0.288","","fixation","","",""
"720","Set1/090a.jpg","79","image-keyboard-response","580","483038","0.0-3.0-1.288","","","Repeat","o","true"
"null","<div style=""font-size:60px;"">+</div>","null","html-keyboard-response","581","483541","0.0-3.0-0.289","","fixation","","",""
"774","Set1/139a.jpg","78","image-keyboard-response","582","484317","0.0-3.0-1.289","","","Update","n","true"
"null","<div style=""font-size:60px;"">+</div>","null","html-keyboard-response","583","484819","0.0-3.0-0.290","","fixation","","",""
"606","Set1/101a.jpg","79","image-keyboard-response","584","485425","0.0-3.0-1.290","","","Update","o","true"
"null","<div style=""font-size:60px;"">+</div>","null","html-keyboard-response","585","485928","0.0-3.0-0.291","","fixation","","",""
"1244","Set1/092a.jpg","78","image-keyboard-response","586","487174","0.0-3.0-1.291","","","Repeat","n","true"
"null","<div style=""font-size:60px;"">+</div>","null","html-keyboard-response","587","487676","0.0-3.0-0.292","","fixation","","",""
"745","Set1/087a.jpg","79","image-keyboard-response","588","488422","0.0-3.0-1.292","","","Repeat","o","true"
"null","<div style=""font-size:60px;"">+</div>","null","html-keyboard-response","589","488924","0.0-3.0-0.293","","fixation","","",""
"799","Set1/034a.jpg","78","image-keyboard-response","590","489724","0.0-3.0-1.293","","","Repeat","n","true"
"null","<div style=""font-size:60px;"">+</div>","null","html-keyboard-response","591","490227","0.0-3.0-0.294","","fixation","","",""
"819","Set1/153a.jpg","79","image-keyboard-response","592","491047","0.0-3.0-1.294","","","Update","n","false"
"null","<div style=""font-size:60px;"">+</div>","null","html-keyboard-response","593","491550","0.0-3.0-0.295","","fixation","","",""
"1186","Set1/092a.jpg","79","image-keyboard-response","594","492738","0.0-3.0-1.295","","","Repeat","o","true"
"null","<div style=""font-size:60px;"">+</div>","null","html-keyboard-response","595","493240","0.0-3.0-0.296","","fixation","","",""
"851","Set1/077a.jpg","79","image-keyboard-response","596","494094","0.0-3.0-1.296","","","Repeat","o","true"
"null","<div style=""font-size:60px;"">+</div>","null","html-keyboard-response","597","494595","0.0-3.0-0.297","","fixation","","",""
"1346","Set1/112a.jpg","78","image-keyboard-response","598","495942","0.0-3.0-1.297","","","Update","n","true"
"null","<div style=""font-size:60px;"">+</div>","null","html-keyboard-response","599","496444","0.0-3.0-0.298","","fixation","","",""
"863","Set1/018a.jpg","79","image-keyboard-response","600","497310","0.0-3.0-1.298","","","Set_1_Only","o","true"
"null","<div style=""font-size:60px;"">+</div>","null","html-keyboard-response","601","497811","0.0-3.0-0.299","","fixation","","",""
"750","Set1/139a.jpg","79","image-keyboard-response","602","498563","0.0-3.0-1.299","","","Update","o","true"
"null","<div style=""font-size:60px;"">+</div>","null","html-keyboard-response","603","499065","0.0-3.0-0.300","","fixation","","",""
"645","Set1/153a.jpg","79","image-keyboard-response","604","499711","0.0-3.0-1.300","","","Update","o","true"
"null","<div style=""font-size:60px;"">+</div>","null","html-keyboard-response","605","500214","0.0-3.0-0.301","","fixation","","",""
"1267","Set1/017a.jpg","78","image-keyboard-response","606","501482","0.0-3.0-1.301","","","Set_1_Only","o","false"
"null","<div style=""font-size:60px;"">+</div>","null","html-keyboard-response","607","501984","0.0-3.0-0.302","","fixation","","",""
"1074","Set1/112a.jpg","79","image-keyboard-response","608","503059","0.0-3.0-1.302","","","Update","o","true"
"null","<div style=""font-size:60px;"">+</div>","null","html-keyboard-response","609","503562","0.0-3.0-0.303","","fixation","","",""
"768","Set1/109a.jpg","79","image-keyboard-response","610","504332","0.0-3.0-1.303","","","Update","o","true"
"null","<div style=""font-size:60px;"">+</div>","null","html-keyboard-response","611","504834","0.0-3.0-0.304","","fixation","","",""
"608","Set1/021a.jpg","79","image-keyboard-response","612","505443","0.0-3.0-1.304","","","Set_1_Only","o","true"
"null","<div style=""font-size:60px;"">+</div>","null","html-keyboard-response","613","505945","0.0-3.0-0.305","","fixation","","",""
"561","Set1/142a.jpg","79","image-keyboard-response","614","506507","0.0-3.0-1.305","","","Update","o","true"
"null","<div style=""font-size:60px;"">+</div>","null","html-keyboard-response","615","507010","0.0-3.0-0.306","","fixation","","",""
"1222","Set1/113a.jpg","78","image-keyboard-response","616","508233","0.0-3.0-1.306","","","Update","n","true"
"null","<div style=""font-size:60px;"">+</div>","null","html-keyboard-response","617","508735","0.0-3.0-0.307","","fixation","","",""
"643","Set1/016a.jpg","79","image-keyboard-response","618","509379","0.0-3.0-1.307","","","Set_1_Only","o","true"
"null","<div style=""font-size:60px;"">+</div>","null","html-keyboard-response","619","509882","0.0-3.0-0.308","","fixation","","",""
"858","Set1/061a.jpg","79","image-keyboard-response","620","510742","0.0-3.0-1.308","","","Repeat","o","true"
"null","<div style=""font-size:60px;"">+</div>","null","html-keyboard-response","621","511243","0.0-3.0-0.309","","fixation","","",""
"775","Set1/009a.jpg","79","image-keyboard-response","622","512019","0.0-3.0-1.309","","","Set_1_Only","o","true"
"null","<div style=""font-size:60px;"">+</div>","null","html-keyboard-response","623","512522","0.0-3.0-0.310","","fixation","","",""
"1888","Set1/141a.jpg","79","image-keyboard-response","624","514412","0.0-3.0-1.310","","","Update","o","true"
"null","<div style=""font-size:60px;"">+</div>","null","html-keyboard-response","625","514913","0.0-3.0-0.311","","fixation","","",""
"858","Set1/011a.jpg","79","image-keyboard-response","626","515774","0.0-3.0-1.311","","","Set_1_Only","o","true"
"null","<div style=""font-size:60px;"">+</div>","null","html-keyboard-response","627","516276","0.0-3.0-0.312","","fixation","","",""
"689","Set1/113a.jpg","79","image-keyboard-response","628","516967","0.0-3.0-1.312","","","Update","o","true"
"null","<div style=""font-size:60px;"">+</div>","null","html-keyboard-response","629","517470","0.0-3.0-0.313","","fixation","","",""
"832","Set1/058a.jpg","79","image-keyboard-response","630","518303","0.0-3.0-1.313","","","Repeat","o","true"
"null","<div style=""font-size:60px;"">+</div>","null","html-keyboard-response","631","518804","0.0-3.0-0.314","","fixation","","",""
"1641","Set1/083a.jpg","79","image-keyboard-response","632","520447","0.0-3.0-1.314","","","Repeat","o","true"
"null","<div style=""font-size:60px;"">+</div>","null","html-keyboard-response","633","520948","0.0-3.0-0.315","","fixation","","",""
"2899","Set1/029a.jpg","79","image-keyboard-response","634","523849","0.0-3.0-1.315","","","Set_1_Only","o","true"
"null","<div style=""font-size:60px;"">+</div>","null","html-keyboard-response","635","524352","0.0-3.0-0.316","","fixation","","",""
"755","Set1/034a.jpg","79","image-keyboard-response","636","525109","0.0-3.0-1.316","","","Repeat","o","true"
"null","<div style=""font-size:60px;"">+</div>","null","html-keyboard-response","637","525611","0.0-3.0-0.317","","fixation","","",""
"1465","Set1/070a.jpg","78","image-keyboard-response","638","527078","0.0-3.0-1.317","","","Repeat","o","false"
"null","<div style=""font-size:60px;"">+</div>","null","html-keyboard-response","639","527580","0.0-3.0-0.318","","fixation","","",""
"730","Set1/098a.jpg","79","image-keyboard-response","640","528312","0.0-3.0-1.318","","","Update","o","true"
"null","<div style=""font-size:60px;"">+</div>","null","html-keyboard-response","641","528814","0.0-3.0-0.319","","fixation","","",""
"1456","Set1/007a.jpg","79","image-keyboard-response","642","530272","0.0-3.0-1.319","","","Set_1_Only","o","true"
